,Subject,trialtype,trialnum,TBR,inpos,outpos,resp,dist_RT,task,folder
0,1.0,P,0.0,bath,0.0,0,mk,6824.0,R.pool350,E9pool
1,1.0,P,0.0,dawn,1.0,,,6910.0,R.pool350,E9pool
2,1.0,P,1.0,farm,0.0,0,farm,8759.0,R.pool350,E9pool
3,1.0,P,1.0,arm,1.0,1,arm,6454.0,R.pool350,E9pool
4,1.0,P,2.0,hood,0.0,0,hood,6619.0,R.pool350,E9pool
5,1.0,P,2.0,wood,1.0,1,wood,6072.0,R.pool350,E9pool
6,1.0,P,3.0,earth,0.0,0,earth,7823.0,R.pool350,E9pool
7,1.0,P,3.0,peach,1.0,1,peach,7421.0,R.pool350,E9pool
8,1.0,S,4.0,king,0.0,0,king,6494.0,R.pool350,E9pool
9,1.0,S,4.0,ring,1.0,1,ring,6242.0,R.pool350,E9pool
10,1.0,S,4.0,spring,2.0,2,spring,6009.0,R.pool350,E9pool
11,1.0,S,4.0,string,3.0,3,string,6385.0,R.pool350,E9pool
12,1.0,S,4.0,wing,4.0,4,wing,6384.0,R.pool350,E9pool
13,1.0,D,5.0,neck,0.0,0,neck,5840.0,R.pool350,E9pool
14,1.0,D,5.0,town,1.0,1,town,4799.0,R.pool350,E9pool
15,1.0,D,5.0,hat,2.0,2,hat,6840.0,R.pool350,E9pool
16,1.0,D,5.0,street,3.0,3,street,6295.0,R.pool350,E9pool
17,1.0,D,6.0,rice,0.0,0,rice,6755.0,R.pool350,E9pool
18,1.0,D,6.0,cat,1.0,1,cat,5795.0,R.pool350,E9pool
19,1.0,D,6.0,trash,2.0,2,trash,5509.0,R.pool350,E9pool
20,1.0,S,7.0,bread,0.0,0,bread,6733.0,R.pool350,E9pool
21,1.0,S,7.0,head,1.0,1,head,6336.0,R.pool350,E9pool
22,1.0,S,7.0,thread,2.0,2,,5818.0,R.pool350,E9pool
23,1.0,S,7.0,bed,3.0,3,bed,7856.0,R.pool350,E9pool
24,1.0,S,8.0,doll,0.0,0,doll,6450.0,R.pool350,E9pool
25,1.0,S,8.0,ball,1.0,1,ball,7904.0,R.pool350,E9pool
26,1.0,S,8.0,shawl,2.0,2,shawl,8850.0,R.pool350,E9pool
27,1.0,S,8.0,hall,3.0,3,hall,6910.0,R.pool350,E9pool
28,1.0,S,8.0,brawl,4.0,4,brawl,7152.0,R.pool350,E9pool
29,1.0,S,8.0,wall,5.0,,,7058.0,R.pool350,E9pool
30,1.0,S,9.0,cream,0.0,0,cream,5639.0,R.pool350,E9pool
31,1.0,S,9.0,team,1.0,1,team,6077.0,R.pool350,E9pool
32,1.0,S,9.0,steam,2.0,2,steam,7164.0,R.pool350,E9pool
33,1.0,D,10.0,path,0.0,0,path,6095.0,R.pool350,E9pool
34,1.0,D,10.0,nest,1.0,1,nest,5659.0,R.pool350,E9pool
35,1.0,D,10.0,square,2.0,2,square,5898.0,R.pool350,E9pool
36,1.0,D,10.0,wood,3.0,3,wood,7333.0,R.pool350,E9pool
37,1.0,D,10.0,beach,4.0,4,beach,6720.0,R.pool350,E9pool
38,1.0,D,11.0,coin,0.0,0,coin,6257.0,R.pool350,E9pool
39,1.0,D,11.0,film,1.0,1,film,6319.0,R.pool350,E9pool
40,1.0,D,11.0,leaf,2.0,2,,5906.0,R.pool350,E9pool
41,1.0,D,11.0,train,3.0,3,train,8190.0,R.pool350,E9pool
42,1.0,D,11.0,map,4.0,,,5780.0,R.pool350,E9pool
43,1.0,D,11.0,art,5.0,,,6108.0,R.pool350,E9pool
44,1.0,S,12.0,bone,0.0,0,bone,6021.0,R.pool350,E9pool
45,1.0,S,12.0,phone,1.0,1,phone,5220.0,R.pool350,E9pool
46,1.0,S,12.0,stone,2.0,2,stone,6420.0,R.pool350,E9pool
47,1.0,D,13.0,chest,0.0,0,chest,5602.0,R.pool350,E9pool
48,1.0,D,13.0,lane,1.0,1,lane,5306.0,R.pool350,E9pool
49,1.0,D,13.0,hair,2.0,2,hair,6783.0,R.pool350,E9pool
50,1.0,D,13.0,crown,3.0,3,crown,5384.0,R.pool350,E9pool
51,1.0,D,14.0,spice,0.0,0,,5272.0,R.pool350,E9pool
52,1.0,D,14.0,heat,1.0,1,,6126.0,R.pool350,E9pool
53,1.0,D,14.0,shape,2.0,,,6193.0,R.pool350,E9pool
54,1.0,D,14.0,pear,3.0,,,6953.0,R.pool350,E9pool
55,1.0,D,14.0,guest,4.0,,,6289.0,R.pool350,E9pool
56,1.0,S,15.0,deer,0.0,0,deer,5894.0,R.pool350,E9pool
57,1.0,S,15.0,sphere,1.0,1,sphere,5889.0,R.pool350,E9pool
58,1.0,S,15.0,ear,2.0,2,ear,7830.0,R.pool350,E9pool
59,1.0,S,15.0,tear,3.0,3,tear,6523.0,R.pool350,E9pool
60,1.0,S,16.0,jar,0.0,0,jar,6366.0,R.pool350,E9pool
61,1.0,S,16.0,bar,1.0,1,bar,6496.0,R.pool350,E9pool
62,1.0,S,16.0,car,2.0,2,car,6068.0,R.pool350,E9pool
63,1.0,S,16.0,scar,3.0,3,scar,6105.0,R.pool350,E9pool
64,1.0,S,16.0,star,4.0,,,8420.0,R.pool350,E9pool
65,1.0,D,17.0,ant,0.0,0,ant,5426.0,R.pool350,E9pool
66,1.0,D,17.0,air,1.0,1,air,6569.0,R.pool350,E9pool
67,1.0,D,17.0,ink,2.0,2,ink,5658.0,R.pool350,E9pool
68,1.0,D,17.0,cloud,3.0,3,clouds,6815.0,R.pool350,E9pool
69,1.0,D,17.0,seat,4.0,4,street,6847.0,R.pool350,E9pool
70,1.0,D,17.0,breath,5.0,5,breath,6980.0,R.pool350,E9pool
71,1.0,D,18.0,toy,0.0,0,toy,6702.0,R.pool350,E9pool
72,1.0,D,18.0,wreck,1.0,1,wreck,5107.0,R.pool350,E9pool
73,1.0,D,18.0,frown,2.0,2,frown,5599.0,R.pool350,E9pool
74,1.0,S,19.0,boot,0.0,0,boot,5343.0,R.pool350,E9pool
75,1.0,S,19.0,suit,1.0,1,suit,6850.0,R.pool350,E9pool
76,1.0,S,19.0,flute,2.0,2,flute,5543.0,R.pool350,E9pool
77,1.0,S,19.0,loot,3.0,3,loot,5675.0,R.pool350,E9pool
78,1.0,S,19.0,root,4.0,4,,7089.0,R.pool350,E9pool
79,1.0,S,19.0,brute,5.0,5,brute,7539.0,R.pool350,E9pool
80,1.0,S,20.0,mail,0.0,0,mail,5991.0,R.pool350,E9pool
81,1.0,S,20.0,sail,1.0,1,sail,6432.0,R.pool350,E9pool
82,1.0,S,20.0,trail,2.0,2,trail,5975.0,R.pool350,E9pool
83,1.0,S,20.0,wail,3.0,3,wail,6112.0,R.pool350,E9pool
84,1.0,S,20.0,tail,4.0,4,tail,5419.0,R.pool350,E9pool
85,1.0,S,20.0,jail,5.0,5,jail,5484.0,R.pool350,E9pool
86,1.0,D,21.0,deck,0.0,0,deck,6346.0,R.pool350,E9pool
87,1.0,D,21.0,slice,1.0,1,slice,8021.0,R.pool350,E9pool
88,1.0,D,21.0,rat,2.0,2,rat,5906.0,R.pool350,E9pool
89,1.0,D,22.0,mare,0.0,0,mare,6405.0,R.pool350,E9pool
90,1.0,D,22.0,bell,1.0,1,bell,5877.0,R.pool350,E9pool
91,1.0,D,22.0,brain,2.0,2,brain,6570.0,R.pool350,E9pool
92,1.0,D,22.0,beef,3.0,3,beef,6683.0,R.pool350,E9pool
93,1.0,S,23.0,pie,0.0,0,pie,6285.0,R.pool350,E9pool
94,1.0,S,23.0,fly,1.0,1,fly,6184.0,R.pool350,E9pool
95,1.0,S,23.0,tie,2.0,2,tie,5025.0,R.pool350,E9pool
96,1.0,S,23.0,sky,3.0,3,sky,6130.0,R.pool350,E9pool
97,1.0,S,23.0,eye,4.0,,,7453.0,R.pool350,E9pool
98,1.0,D,24.0,shell,0.0,0,shell,5109.0,R.pool350,E9pool
99,1.0,D,24.0,tree,1.0,1,tree,5865.0,R.pool350,E9pool
100,1.0,D,24.0,bowl,2.0,2,bowl,5727.0,R.pool350,E9pool
101,1.0,D,24.0,broom,3.0,3,broom,7331.0,R.pool350,E9pool
102,1.0,D,24.0,test,4.0,4,test,8292.0,R.pool350,E9pool
103,1.0,D,24.0,ground,5.0,5,ground,5862.0,R.pool350,E9pool
104,1.0,D,25.0,beard,0.0,0,beard,6003.0,R.pool350,E9pool
105,1.0,D,25.0,hill,1.0,1,hill,6602.0,R.pool350,E9pool
106,1.0,D,25.0,dirt,2.0,2,dirt,6674.0,R.pool350,E9pool
107,1.0,D,25.0,card,3.0,3,,6981.0,R.pool350,E9pool
108,1.0,D,25.0,line,4.0,4,card,6775.0,R.pool350,E9pool
109,1.0,S,26.0,band,0.0,0,band,5192.0,R.pool350,E9pool
110,1.0,S,26.0,land,1.0,1,land,5929.0,R.pool350,E9pool
111,1.0,S,26.0,stand,2.0,2,stand,7308.0,R.pool350,E9pool
112,1.0,S,26.0,hand,3.0,3,hand,7728.0,R.pool350,E9pool
113,1.0,S,27.0,blouse,0.0,0,,5379.0,R.pool350,E9pool
114,1.0,S,27.0,house,1.0,1,house,8046.0,R.pool350,E9pool
115,1.0,S,27.0,mouse,2.0,2,mouse,6393.0,R.pool350,E9pool
116,10.0,P,0.0,hood,0.0,0,wood,7994.0,R.pool350,E9pool
117,10.0,P,0.0,wood,1.0,,,7097.0,R.pool350,E9pool
118,10.0,P,1.0,bath,0.0,0,bath,6957.0,R.pool350,E9pool
119,10.0,P,1.0,dawn,1.0,1,dawn,10037.0,R.pool350,E9pool
120,10.0,P,2.0,earth,0.0,0,earth,7370.0,R.pool350,E9pool
121,10.0,P,2.0,peach,1.0,1,peach,6841.0,R.pool350,E9pool
122,10.0,P,3.0,farm,0.0,0,farm,5971.0,R.pool350,E9pool
123,10.0,P,3.0,arm,1.0,1,arm,6877.0,R.pool350,E9pool
124,10.0,S,4.0,cream,0.0,0,cream,5401.0,R.pool350,E9pool
125,10.0,S,4.0,team,1.0,1,team,6250.0,R.pool350,E9pool
126,10.0,S,4.0,steam,2.0,2,steam,6335.0,R.pool350,E9pool
127,10.0,S,5.0,king,0.0,0,king,6758.0,R.pool350,E9pool
128,10.0,S,5.0,ring,1.0,1,ring,5791.0,R.pool350,E9pool
129,10.0,S,5.0,spring,2.0,2,spring,7129.0,R.pool350,E9pool
130,10.0,S,5.0,string,3.0,3,string,7731.0,R.pool350,E9pool
131,10.0,S,5.0,wing,4.0,4,wing,8541.0,R.pool350,E9pool
132,10.0,S,6.0,doll,0.0,0,dall,7040.0,R.pool350,E9pool
133,10.0,S,6.0,ball,1.0,1,ball,6597.0,R.pool350,E9pool
134,10.0,S,6.0,shawl,2.0,2,shawl,8229.0,R.pool350,E9pool
135,10.0,S,6.0,hall,3.0,3,,7395.0,R.pool350,E9pool
136,10.0,S,6.0,brawl,4.0,,,9233.0,R.pool350,E9pool
137,10.0,S,6.0,wall,5.0,,,8797.0,R.pool350,E9pool
138,10.0,D,7.0,path,0.0,0,path,7454.0,R.pool350,E9pool
139,10.0,D,7.0,nest,1.0,1,nest,5971.0,R.pool350,E9pool
140,10.0,D,7.0,square,2.0,2,square,7660.0,R.pool350,E9pool
141,10.0,D,7.0,wood,3.0,3,beach,6848.0,R.pool350,E9pool
142,10.0,D,7.0,beach,4.0,,,7223.0,R.pool350,E9pool
143,10.0,D,8.0,coin,0.0,0,coin,6069.0,R.pool350,E9pool
144,10.0,D,8.0,film,1.0,1,film,5899.0,R.pool350,E9pool
145,10.0,D,8.0,leaf,2.0,2,leaf,7152.0,R.pool350,E9pool
146,10.0,D,8.0,train,3.0,3,map,8017.0,R.pool350,E9pool
147,10.0,D,8.0,map,4.0,4,,7110.0,R.pool350,E9pool
148,10.0,D,8.0,art,5.0,,,6225.0,R.pool350,E9pool
149,10.0,S,9.0,bread,0.0,0,bread,6638.0,R.pool350,E9pool
150,10.0,S,9.0,head,1.0,1,head,7253.0,R.pool350,E9pool
151,10.0,S,9.0,thread,2.0,2,thread,7161.0,R.pool350,E9pool
152,10.0,S,9.0,bed,3.0,3,bed,6665.0,R.pool350,E9pool
153,10.0,D,10.0,rice,0.0,0,rice,6316.0,R.pool350,E9pool
154,10.0,D,10.0,cat,1.0,1,cat,7280.0,R.pool350,E9pool
155,10.0,D,10.0,trash,2.0,2,trash,6893.0,R.pool350,E9pool
156,10.0,D,11.0,neck,0.0,0,neck,5890.0,R.pool350,E9pool
157,10.0,D,11.0,town,1.0,1,town,5424.0,R.pool350,E9pool
158,10.0,D,11.0,hat,2.0,2,hat,7657.0,R.pool350,E9pool
159,10.0,D,11.0,street,3.0,3,street,8790.0,R.pool350,E9pool
160,10.0,S,12.0,bone,0.0,0,bone,5781.0,R.pool350,E9pool
161,10.0,S,12.0,phone,1.0,1,phone,5767.0,R.pool350,E9pool
162,10.0,S,12.0,stone,2.0,2,stone,7680.0,R.pool350,E9pool
163,10.0,D,13.0,ant,0.0,0,ant,5961.0,R.pool350,E9pool
164,10.0,D,13.0,air,1.0,1,air,6195.0,R.pool350,E9pool
165,10.0,D,13.0,ink,2.0,2,ink,5980.0,R.pool350,E9pool
166,10.0,D,13.0,cloud,3.0,3,cloud,8509.0,R.pool350,E9pool
167,10.0,D,13.0,seat,4.0,4,breath,7351.0,R.pool350,E9pool
168,10.0,D,13.0,breath,5.0,,,8783.0,R.pool350,E9pool
169,10.0,S,14.0,deer,0.0,0,deer,5819.0,R.pool350,E9pool
170,10.0,S,14.0,sphere,1.0,1,sphere,5618.0,R.pool350,E9pool
171,10.0,S,14.0,ear,2.0,2,ear,7497.0,R.pool350,E9pool
172,10.0,S,14.0,tear,3.0,3,tear,5677.0,R.pool350,E9pool
173,10.0,S,15.0,jar,0.0,0,jar,7275.0,R.pool350,E9pool
174,10.0,S,15.0,bar,1.0,1,bar,5704.0,R.pool350,E9pool
175,10.0,S,15.0,car,2.0,2,car,5564.0,R.pool350,E9pool
176,10.0,S,15.0,scar,3.0,3,scar,8078.0,R.pool350,E9pool
177,10.0,S,15.0,star,4.0,,,6458.0,R.pool350,E9pool
178,10.0,D,16.0,toy,0.0,0,toy,5650.0,R.pool350,E9pool
179,10.0,D,16.0,wreck,1.0,1,wreck,8705.0,R.pool350,E9pool
180,10.0,D,16.0,frown,2.0,2,brown,7363.0,R.pool350,E9pool
181,10.0,D,17.0,spice,0.0,0,spice,6137.0,R.pool350,E9pool
182,10.0,D,17.0,heat,1.0,1,heat,7211.0,R.pool350,E9pool
183,10.0,D,17.0,shape,2.0,2,shape,5722.0,R.pool350,E9pool
184,10.0,D,17.0,pear,3.0,3,pear,6749.0,R.pool350,E9pool
185,10.0,D,17.0,guest,4.0,4,guest,8192.0,R.pool350,E9pool
186,10.0,S,18.0,boot,0.0,0,boot,5513.0,R.pool350,E9pool
187,10.0,S,18.0,suit,1.0,1,suit,6301.0,R.pool350,E9pool
188,10.0,S,18.0,flute,2.0,2,flute,5265.0,R.pool350,E9pool
189,10.0,S,18.0,loot,3.0,3,loot,5647.0,R.pool350,E9pool
190,10.0,S,18.0,root,4.0,4,root,6302.0,R.pool350,E9pool
191,10.0,S,18.0,brute,5.0,5,brute,7922.0,R.pool350,E9pool
192,10.0,D,19.0,chest,0.0,0,chest,9056.0,R.pool350,E9pool
193,10.0,D,19.0,lane,1.0,1,path,5595.0,R.pool350,E9pool
194,10.0,D,19.0,hair,2.0,2,hair,6476.0,R.pool350,E9pool
195,10.0,D,19.0,crown,3.0,3,crown,6105.0,R.pool350,E9pool
196,10.0,S,20.0,pie,0.0,0,pie,7390.0,R.pool350,E9pool
197,10.0,S,20.0,fly,1.0,1,fly,4990.0,R.pool350,E9pool
198,10.0,S,20.0,tie,2.0,2,tie,6224.0,R.pool350,E9pool
199,10.0,S,20.0,sky,3.0,3,sky,6263.0,R.pool350,E9pool
200,10.0,S,20.0,eye,4.0,4,eye,9388.0,R.pool350,E9pool
201,10.0,D,21.0,beard,0.0,0,beard,5311.0,R.pool350,E9pool
202,10.0,D,21.0,hill,1.0,1,hill,5532.0,R.pool350,E9pool
203,10.0,D,21.0,dirt,2.0,2,dirt,6791.0,R.pool350,E9pool
204,10.0,D,21.0,card,3.0,3,card,5487.0,R.pool350,E9pool
205,10.0,D,21.0,line,4.0,4,line,7476.0,R.pool350,E9pool
206,10.0,S,22.0,blouse,0.0,0,mouse,5992.0,R.pool350,E9pool
207,10.0,S,22.0,house,1.0,,,7472.0,R.pool350,E9pool
208,10.0,S,22.0,mouse,2.0,,,9164.0,R.pool350,E9pool
209,10.0,D,23.0,deck,0.0,0,deck,5603.0,R.pool350,E9pool
210,10.0,D,23.0,slice,1.0,1,slice,6227.0,R.pool350,E9pool
211,10.0,D,23.0,rat,2.0,2,rat,6258.0,R.pool350,E9pool
212,10.0,D,24.0,shell,0.0,0,shell,5168.0,R.pool350,E9pool
213,10.0,D,24.0,tree,1.0,1,tree,5450.0,R.pool350,E9pool
214,10.0,D,24.0,bowl,2.0,2,bowl,6097.0,R.pool350,E9pool
215,10.0,D,24.0,broom,3.0,3,,8653.0,R.pool350,E9pool
216,10.0,D,24.0,test,4.0,,,6921.0,R.pool350,E9pool
217,10.0,D,24.0,ground,5.0,,,7547.0,R.pool350,E9pool
218,10.0,S,25.0,mail,0.0,0,mail,5458.0,R.pool350,E9pool
219,10.0,S,25.0,sail,1.0,1,wail,6056.0,R.pool350,E9pool
220,10.0,S,25.0,trail,2.0,2,tale,8390.0,R.pool350,E9pool
221,10.0,S,25.0,wail,3.0,3,jail,8045.0,R.pool350,E9pool
222,10.0,S,25.0,tail,4.0,,,7897.0,R.pool350,E9pool
223,10.0,S,25.0,jail,5.0,,,7420.0,R.pool350,E9pool
224,10.0,D,26.0,mare,0.0,0,mare,6998.0,R.pool350,E9pool
225,10.0,D,26.0,bell,1.0,1,bell,7198.0,R.pool350,E9pool
226,10.0,D,26.0,brain,2.0,2,brain,6229.0,R.pool350,E9pool
227,10.0,D,26.0,beef,3.0,3,beef,6652.0,R.pool350,E9pool
228,10.0,S,27.0,band,0.0,0,band,5621.0,R.pool350,E9pool
229,10.0,S,27.0,land,1.0,1,land,8117.0,R.pool350,E9pool
230,10.0,S,27.0,stand,2.0,2,hand,6263.0,R.pool350,E9pool
231,10.0,S,27.0,hand,3.0,,,7324.0,R.pool350,E9pool
232,13.0,P,0.0,hood,0.0,0,hood,5939.0,R.pool350,E9pool
233,13.0,P,0.0,wood,1.0,1,wood,5614.0,R.pool350,E9pool
234,13.0,P,1.0,earth,0.0,0,earth,5777.0,R.pool350,E9pool
235,13.0,P,1.0,peach,1.0,1,peach,5284.0,R.pool350,E9pool
236,13.0,P,2.0,bath,0.0,0,,5207.0,R.pool350,E9pool
237,13.0,P,2.0,dawn,1.0,1,dawn,6126.0,R.pool350,E9pool
238,13.0,P,3.0,farm,0.0,0,farm,6663.0,R.pool350,E9pool
239,13.0,P,3.0,arm,1.0,1,arm,7284.0,R.pool350,E9pool
240,13.0,D,4.0,rice,0.0,0,,5471.0,R.pool350,E9pool
241,13.0,D,4.0,cat,1.0,1,cat,6149.0,R.pool350,E9pool
242,13.0,D,4.0,trash,2.0,2,trash,7959.0,R.pool350,E9pool
243,13.0,S,5.0,king,0.0,0,king,7367.0,R.pool350,E9pool
244,13.0,S,5.0,ring,1.0,1,ring,5663.0,R.pool350,E9pool
245,13.0,S,5.0,spring,2.0,2,string,5678.0,R.pool350,E9pool
246,13.0,S,5.0,string,3.0,3,,5570.0,R.pool350,E9pool
247,13.0,S,5.0,wing,4.0,,,6045.0,R.pool350,E9pool
248,13.0,D,6.0,path,0.0,0,,7026.0,R.pool350,E9pool
249,13.0,D,6.0,nest,1.0,1,nest,6312.0,R.pool350,E9pool
250,13.0,D,6.0,square,2.0,2,,5731.0,R.pool350,E9pool
251,13.0,D,6.0,wood,3.0,3,,6343.0,R.pool350,E9pool
252,13.0,D,6.0,beach,4.0,4,beach,6824.0,R.pool350,E9pool
253,13.0,S,7.0,doll,0.0,0,doll,7143.0,R.pool350,E9pool
254,13.0,S,7.0,ball,1.0,1,hall,5568.0,R.pool350,E9pool
255,13.0,S,7.0,shawl,2.0,2,shawl,5001.0,R.pool350,E9pool
256,13.0,S,7.0,hall,3.0,3,,5699.0,R.pool350,E9pool
257,13.0,S,7.0,brawl,4.0,4,brawl,5318.0,R.pool350,E9pool
258,13.0,S,7.0,wall,5.0,,,6083.0,R.pool350,E9pool
259,13.0,S,8.0,bread,0.0,0,bread,7119.0,R.pool350,E9pool
260,13.0,S,8.0,head,1.0,1,,6577.0,R.pool350,E9pool
261,13.0,S,8.0,thread,2.0,2,thread,5361.0,R.pool350,E9pool
262,13.0,S,8.0,bed,3.0,3,bed,5788.0,R.pool350,E9pool
263,13.0,D,9.0,neck,0.0,0,neck,6230.0,R.pool350,E9pool
264,13.0,D,9.0,town,1.0,1,,5782.0,R.pool350,E9pool
265,13.0,D,9.0,hat,2.0,2,hat,6920.0,R.pool350,E9pool
266,13.0,D,9.0,street,3.0,3,street,7706.0,R.pool350,E9pool
267,13.0,S,10.0,bone,0.0,0,bone,7346.0,R.pool350,E9pool
268,13.0,S,10.0,phone,1.0,1,phone,7412.0,R.pool350,E9pool
269,13.0,S,10.0,stone,2.0,2,stone,6666.0,R.pool350,E9pool
270,13.0,D,11.0,coin,0.0,0,,8596.0,R.pool350,E9pool
271,13.0,D,11.0,film,1.0,1,film,6962.0,R.pool350,E9pool
272,13.0,D,11.0,leaf,2.0,2,,6019.0,R.pool350,E9pool
273,13.0,D,11.0,train,3.0,3,,6042.0,R.pool350,E9pool
274,13.0,D,11.0,map,4.0,4,art,6360.0,R.pool350,E9pool
275,13.0,D,11.0,art,5.0,,,5466.0,R.pool350,E9pool
276,13.0,D,12.0,spice,0.0,0,spice,9792.0,R.pool350,E9pool
277,13.0,D,12.0,heat,1.0,1,heat,6893.0,R.pool350,E9pool
278,13.0,D,12.0,shape,2.0,2,shape,5161.0,R.pool350,E9pool
279,13.0,D,12.0,pear,3.0,3,,5197.0,R.pool350,E9pool
280,13.0,D,12.0,guest,4.0,4,guest,5158.0,R.pool350,E9pool
281,13.0,S,13.0,boot,0.0,0,boot,6486.0,R.pool350,E9pool
282,13.0,S,13.0,suit,1.0,1,suite,6153.0,R.pool350,E9pool
283,13.0,S,13.0,flute,2.0,2,,5956.0,R.pool350,E9pool
284,13.0,S,13.0,loot,3.0,3,flute,6102.0,R.pool350,E9pool
285,13.0,S,13.0,root,4.0,4,loot,6122.0,R.pool350,E9pool
286,13.0,S,13.0,brute,5.0,5,root,5628.0,R.pool350,E9pool
287,13.0,D,14.0,chest,0.0,0,chest,6299.0,R.pool350,E9pool
288,13.0,D,14.0,lane,1.0,1,,5646.0,R.pool350,E9pool
289,13.0,D,14.0,hair,2.0,2,hair,5757.0,R.pool350,E9pool
290,13.0,D,14.0,crown,3.0,3,crown,6159.0,R.pool350,E9pool
291,13.0,S,15.0,jar,0.0,0,jar,6900.0,R.pool350,E9pool
292,13.0,S,15.0,bar,1.0,1,bar,8151.0,R.pool350,E9pool
293,13.0,S,15.0,car,2.0,2,car,6192.0,R.pool350,E9pool
294,13.0,S,15.0,scar,3.0,3,scar,6488.0,R.pool350,E9pool
295,13.0,S,15.0,star,4.0,4,,5620.0,R.pool350,E9pool
296,13.0,D,16.0,toy,0.0,0,toy,7035.0,R.pool350,E9pool
297,13.0,D,16.0,wreck,1.0,1,wreck,5401.0,R.pool350,E9pool
298,13.0,D,16.0,frown,2.0,2,frown,6089.0,R.pool350,E9pool
299,13.0,S,17.0,deer,0.0,0,deer,5760.0,R.pool350,E9pool
300,13.0,S,17.0,sphere,1.0,1,sphere,5146.0,R.pool350,E9pool
301,13.0,S,17.0,ear,2.0,2,ear,6375.0,R.pool350,E9pool
302,13.0,S,17.0,tear,3.0,3,tear,5432.0,R.pool350,E9pool
303,13.0,S,18.0,blouse,0.0,0,blouse,6686.0,R.pool350,E9pool
304,13.0,S,18.0,house,1.0,1,house,6795.0,R.pool350,E9pool
305,13.0,S,18.0,mouse,2.0,2,mouse,6587.0,R.pool350,E9pool
306,13.0,D,19.0,ant,0.0,0,ant,7435.0,R.pool350,E9pool
307,13.0,D,19.0,air,1.0,1,,7536.0,R.pool350,E9pool
308,13.0,D,19.0,ink,2.0,2,air,7016.0,R.pool350,E9pool
309,13.0,D,19.0,cloud,3.0,3,cloud,6376.0,R.pool350,E9pool
310,13.0,D,19.0,seat,4.0,4,seat,5921.0,R.pool350,E9pool
311,13.0,D,19.0,breath,5.0,5,breath,6331.0,R.pool350,E9pool
312,13.0,S,20.0,pie,0.0,0,pie,8218.0,R.pool350,E9pool
313,13.0,S,20.0,fly,1.0,1,fly,5560.0,R.pool350,E9pool
314,13.0,S,20.0,tie,2.0,2,tie,5138.0,R.pool350,E9pool
315,13.0,S,20.0,sky,3.0,3,,5693.0,R.pool350,E9pool
316,13.0,S,20.0,eye,4.0,4,eye,6306.0,R.pool350,E9pool
317,13.0,D,21.0,deck,0.0,0,deck,9315.0,R.pool350,E9pool
318,13.0,D,21.0,slice,1.0,1,slice,6348.0,R.pool350,E9pool
319,13.0,D,21.0,rat,2.0,2,rat,7126.0,R.pool350,E9pool
320,13.0,S,22.0,band,0.0,0,ran,5558.0,R.pool350,E9pool
321,13.0,S,22.0,land,1.0,1,,5768.0,R.pool350,E9pool
322,13.0,S,22.0,stand,2.0,2,,7354.0,R.pool350,E9pool
323,13.0,S,22.0,hand,3.0,3,hand,7154.0,R.pool350,E9pool
324,13.0,D,23.0,beard,0.0,0,beard,7162.0,R.pool350,E9pool
325,13.0,D,23.0,hill,1.0,1,,5834.0,R.pool350,E9pool
326,13.0,D,23.0,dirt,2.0,2,,5297.0,R.pool350,E9pool
327,13.0,D,23.0,card,3.0,3,line,5654.0,R.pool350,E9pool
328,13.0,D,23.0,line,4.0,,,5636.0,R.pool350,E9pool
329,13.0,D,24.0,shell,0.0,0,shell,7785.0,R.pool350,E9pool
330,13.0,D,24.0,tree,1.0,1,tree,5360.0,R.pool350,E9pool
331,13.0,D,24.0,bowl,2.0,2,,5851.0,R.pool350,E9pool
332,13.0,D,24.0,broom,3.0,3,hold,5169.0,R.pool350,E9pool
333,13.0,D,24.0,test,4.0,4,test,5243.0,R.pool350,E9pool
334,13.0,D,24.0,ground,5.0,5,ground,6498.0,R.pool350,E9pool
335,13.0,S,25.0,mail,0.0,0,tail,6487.0,R.pool350,E9pool
336,13.0,S,25.0,sail,1.0,1,sail,6228.0,R.pool350,E9pool
337,13.0,S,25.0,trail,2.0,2,wail,4947.0,R.pool350,E9pool
338,13.0,S,25.0,wail,3.0,3,trail,4966.0,R.pool350,E9pool
339,13.0,S,25.0,tail,4.0,4,,5072.0,R.pool350,E9pool
340,13.0,S,25.0,jail,5.0,5,jail,5054.0,R.pool350,E9pool
341,13.0,D,26.0,mare,0.0,0,,6029.0,R.pool350,E9pool
342,13.0,D,26.0,bell,1.0,1,,4612.0,R.pool350,E9pool
343,13.0,D,26.0,brain,2.0,2,bail,4814.0,R.pool350,E9pool
344,13.0,D,26.0,beef,3.0,3,beef,4727.0,R.pool350,E9pool
345,13.0,S,27.0,cream,0.0,0,cream,8078.0,R.pool350,E9pool
346,13.0,S,27.0,team,1.0,1,team,5585.0,R.pool350,E9pool
347,13.0,S,27.0,steam,2.0,2,steam,6187.0,R.pool350,E9pool
348,14.0,P,0.0,hood,0.0,0,hood,5885.0,R.pool350,E9pool
349,14.0,P,0.0,wood,1.0,1,wood,5642.0,R.pool350,E9pool
350,14.0,P,1.0,bath,0.0,0,bath,6119.0,R.pool350,E9pool
351,14.0,P,1.0,dawn,1.0,1,dawn,5483.0,R.pool350,E9pool
352,14.0,P,2.0,earth,0.0,0,earth,5908.0,R.pool350,E9pool
353,14.0,P,2.0,peach,1.0,1,peach,5952.0,R.pool350,E9pool
354,14.0,P,3.0,farm,0.0,0,farm,6602.0,R.pool350,E9pool
355,14.0,P,3.0,arm,1.0,1,arm,6353.0,R.pool350,E9pool
356,14.0,D,4.0,path,0.0,0,path,6718.0,R.pool350,E9pool
357,14.0,D,4.0,nest,1.0,1,nest,5496.0,R.pool350,E9pool
358,14.0,D,4.0,square,2.0,2,,6501.0,R.pool350,E9pool
359,14.0,D,4.0,wood,3.0,3,wood,6312.0,R.pool350,E9pool
360,14.0,D,4.0,beach,4.0,4,beach,6140.0,R.pool350,E9pool
361,14.0,S,5.0,bread,0.0,0,bread,4253.0,R.pool350,E9pool
362,14.0,S,5.0,head,1.0,1,head,5397.0,R.pool350,E9pool
363,14.0,S,5.0,thread,2.0,2,thread,6790.0,R.pool350,E9pool
364,14.0,S,5.0,bed,3.0,3,bed,6174.0,R.pool350,E9pool
365,14.0,D,6.0,coin,0.0,0,friend,4708.0,R.pool350,E9pool
366,14.0,D,6.0,film,1.0,1,train,5929.0,R.pool350,E9pool
367,14.0,D,6.0,leaf,2.0,2,,6812.0,R.pool350,E9pool
368,14.0,D,6.0,train,3.0,3,,6923.0,R.pool350,E9pool
369,14.0,D,6.0,map,4.0,4,,5437.0,R.pool350,E9pool
370,14.0,D,6.0,art,5.0,5,,5085.0,R.pool350,E9pool
371,14.0,D,7.0,rice,0.0,0,rice,3995.0,R.pool350,E9pool
372,14.0,D,7.0,cat,1.0,1,cat,5477.0,R.pool350,E9pool
373,14.0,D,7.0,trash,2.0,2,trash,5291.0,R.pool350,E9pool
374,14.0,S,8.0,cream,0.0,0,cream,4342.0,R.pool350,E9pool
375,14.0,S,8.0,team,1.0,1,team,5050.0,R.pool350,E9pool
376,14.0,S,8.0,steam,2.0,2,steam,4801.0,R.pool350,E9pool
377,14.0,S,9.0,doll,0.0,0,doll,4372.0,R.pool350,E9pool
378,14.0,S,9.0,ball,1.0,1,ball,5767.0,R.pool350,E9pool
379,14.0,S,9.0,shawl,2.0,2,shawl,6048.0,R.pool350,E9pool
380,14.0,S,9.0,hall,3.0,3,brawl,6248.0,R.pool350,E9pool
381,14.0,S,9.0,brawl,4.0,4,hall,7061.0,R.pool350,E9pool
382,14.0,S,9.0,wall,5.0,5,wall,6570.0,R.pool350,E9pool
383,14.0,D,10.0,neck,0.0,0,neck,5657.0,R.pool350,E9pool
384,14.0,D,10.0,town,1.0,1,town,7431.0,R.pool350,E9pool
385,14.0,D,10.0,hat,2.0,2,hat,7949.0,R.pool350,E9pool
386,14.0,D,10.0,street,3.0,3,street,7351.0,R.pool350,E9pool
387,14.0,S,11.0,king,0.0,0,king,4705.0,R.pool350,E9pool
388,14.0,S,11.0,ring,1.0,1,ring,5735.0,R.pool350,E9pool
389,14.0,S,11.0,spring,2.0,2,spring,5729.0,R.pool350,E9pool
390,14.0,S,11.0,string,3.0,3,string,5837.0,R.pool350,E9pool
391,14.0,S,11.0,wing,4.0,4,wing,6539.0,R.pool350,E9pool
392,14.0,D,12.0,toy,0.0,0,toy,5748.0,R.pool350,E9pool
393,14.0,D,12.0,wreck,1.0,1,wreck,6910.0,R.pool350,E9pool
394,14.0,D,12.0,frown,2.0,2,frown,6976.0,R.pool350,E9pool
395,14.0,S,13.0,deer,0.0,0,deer,4178.0,R.pool350,E9pool
396,14.0,S,13.0,sphere,1.0,1,sphere,5293.0,R.pool350,E9pool
397,14.0,S,13.0,ear,2.0,2,ear,7235.0,R.pool350,E9pool
398,14.0,S,13.0,tear,3.0,3,,6913.0,R.pool350,E9pool
399,14.0,D,14.0,spice,0.0,0,spice,7031.0,R.pool350,E9pool
400,14.0,D,14.0,heat,1.0,1,spicy,6565.0,R.pool350,E9pool
401,14.0,D,14.0,shape,2.0,2,shape,6920.0,R.pool350,E9pool
402,14.0,D,14.0,pear,3.0,3,pear,7905.0,R.pool350,E9pool
403,14.0,D,14.0,guest,4.0,4,guest,8091.0,R.pool350,E9pool
404,14.0,D,15.0,chest,0.0,0,chest,7196.0,R.pool350,E9pool
405,14.0,D,15.0,lane,1.0,1,lane,5989.0,R.pool350,E9pool
406,14.0,D,15.0,hair,2.0,2,hair,7309.0,R.pool350,E9pool
407,14.0,D,15.0,crown,3.0,3,crown,5935.0,R.pool350,E9pool
408,14.0,S,16.0,boot,0.0,0,boot,4852.0,R.pool350,E9pool
409,14.0,S,16.0,suit,1.0,1,suit,5275.0,R.pool350,E9pool
410,14.0,S,16.0,flute,2.0,2,flute,9034.0,R.pool350,E9pool
411,14.0,S,16.0,loot,3.0,3,loot,6197.0,R.pool350,E9pool
412,14.0,S,16.0,root,4.0,4,root,7101.0,R.pool350,E9pool
413,14.0,S,16.0,brute,5.0,,,7440.0,R.pool350,E9pool
414,14.0,S,17.0,bone,0.0,0,bone,7930.0,R.pool350,E9pool
415,14.0,S,17.0,phone,1.0,1,phone,6403.0,R.pool350,E9pool
416,14.0,S,17.0,stone,2.0,2,stone,6914.0,R.pool350,E9pool
417,14.0,S,18.0,jar,0.0,0,jar,7565.0,R.pool350,E9pool
418,14.0,S,18.0,bar,1.0,1,bar,6558.0,R.pool350,E9pool
419,14.0,S,18.0,car,2.0,2,car,6000.0,R.pool350,E9pool
420,14.0,S,18.0,scar,3.0,3,scar,5519.0,R.pool350,E9pool
421,14.0,S,18.0,star,4.0,4,star,5955.0,R.pool350,E9pool
422,14.0,D,19.0,ant,0.0,0,ant,4641.0,R.pool350,E9pool
423,14.0,D,19.0,air,1.0,1,air,5785.0,R.pool350,E9pool
424,14.0,D,19.0,ink,2.0,2,ink,6361.0,R.pool350,E9pool
425,14.0,D,19.0,cloud,3.0,3,cloud,5771.0,R.pool350,E9pool
426,14.0,D,19.0,seat,4.0,4,seat,6468.0,R.pool350,E9pool
427,14.0,D,19.0,breath,5.0,5,breath,5345.0,R.pool350,E9pool
428,14.0,S,20.0,blouse,0.0,0,blouse,5550.0,R.pool350,E9pool
429,14.0,S,20.0,house,1.0,1,house,6889.0,R.pool350,E9pool
430,14.0,S,20.0,mouse,2.0,2,mouse,5525.0,R.pool350,E9pool
431,14.0,D,21.0,beard,0.0,0,beard,5412.0,R.pool350,E9pool
432,14.0,D,21.0,hill,1.0,1,hill,5413.0,R.pool350,E9pool
433,14.0,D,21.0,dirt,2.0,2,dirt,6653.0,R.pool350,E9pool
434,14.0,D,21.0,card,3.0,3,card,6930.0,R.pool350,E9pool
435,14.0,D,21.0,line,4.0,4,line,6245.0,R.pool350,E9pool
436,14.0,S,22.0,band,0.0,0,band,5238.0,R.pool350,E9pool
437,14.0,S,22.0,land,1.0,1,land,5733.0,R.pool350,E9pool
438,14.0,S,22.0,stand,2.0,2,stand,7232.0,R.pool350,E9pool
439,14.0,S,22.0,hand,3.0,3,hand,8582.0,R.pool350,E9pool
440,14.0,S,23.0,mail,0.0,0,mail,6110.0,R.pool350,E9pool
441,14.0,S,23.0,sail,1.0,1,sail,5386.0,R.pool350,E9pool
442,14.0,S,23.0,trail,2.0,2,trail,8052.0,R.pool350,E9pool
443,14.0,S,23.0,wail,3.0,3,wail,7240.0,R.pool350,E9pool
444,14.0,S,23.0,tail,4.0,4,tail,6844.0,R.pool350,E9pool
445,14.0,S,23.0,jail,5.0,5,,6067.0,R.pool350,E9pool
446,14.0,D,24.0,mare,0.0,0,mare,5239.0,R.pool350,E9pool
447,14.0,D,24.0,bell,1.0,1,bell,5406.0,R.pool350,E9pool
448,14.0,D,24.0,brain,2.0,2,brain,5534.0,R.pool350,E9pool
449,14.0,D,24.0,beef,3.0,3,beef,6049.0,R.pool350,E9pool
450,14.0,D,25.0,shell,0.0,0,shell,4872.0,R.pool350,E9pool
451,14.0,D,25.0,tree,1.0,1,tree,5477.0,R.pool350,E9pool
452,14.0,D,25.0,bowl,2.0,2,bowl,5108.0,R.pool350,E9pool
453,14.0,D,25.0,broom,3.0,3,broom,6679.0,R.pool350,E9pool
454,14.0,D,25.0,test,4.0,4,test,6844.0,R.pool350,E9pool
455,14.0,D,25.0,ground,5.0,5,ground,5931.0,R.pool350,E9pool
456,14.0,S,26.0,pie,0.0,0,pie,5406.0,R.pool350,E9pool
457,14.0,S,26.0,fly,1.0,1,fly,8352.0,R.pool350,E9pool
458,14.0,S,26.0,tie,2.0,2,tie,6264.0,R.pool350,E9pool
459,14.0,S,26.0,sky,3.0,3,sky,7269.0,R.pool350,E9pool
460,14.0,S,26.0,eye,4.0,4,eye,7170.0,R.pool350,E9pool
461,14.0,D,27.0,deck,0.0,0,deck,4899.0,R.pool350,E9pool
462,14.0,D,27.0,slice,1.0,1,slice,5729.0,R.pool350,E9pool
463,14.0,D,27.0,rat,2.0,2,rat,5324.0,R.pool350,E9pool
464,2.0,P,0.0,bath,0.0,0,bath,6065.0,R.pool350,E9pool
465,2.0,P,0.0,dawn,1.0,1,dawn,5439.0,R.pool350,E9pool
466,2.0,P,1.0,farm,0.0,0,farm,6540.0,R.pool350,E9pool
467,2.0,P,1.0,arm,1.0,1,arm,5790.0,R.pool350,E9pool
468,2.0,P,2.0,earth,0.0,0,earth,6571.0,R.pool350,E9pool
469,2.0,P,2.0,peach,1.0,1,peach,5517.0,R.pool350,E9pool
470,2.0,P,3.0,hood,0.0,0,hood,8441.0,R.pool350,E9pool
471,2.0,P,3.0,wood,1.0,1,wood,5853.0,R.pool350,E9pool
472,2.0,D,4.0,neck,0.0,0,earth,8639.0,R.pool350,E9pool
473,2.0,D,4.0,town,1.0,1,dog,6099.0,R.pool350,E9pool
474,2.0,D,4.0,hat,2.0,2,money,5358.0,R.pool350,E9pool
475,2.0,D,4.0,street,3.0,3,memoirs,7010.0,R.pool350,E9pool
476,2.0,S,5.0,doll,0.0,0,shawl,7471.0,R.pool350,E9pool
477,2.0,S,5.0,ball,1.0,1,hall,8915.0,R.pool350,E9pool
478,2.0,S,5.0,shawl,2.0,2,brawl,5908.0,R.pool350,E9pool
479,2.0,S,5.0,hall,3.0,3,wall,8352.0,R.pool350,E9pool
480,2.0,S,5.0,brawl,4.0,4,,7376.0,R.pool350,E9pool
481,2.0,S,5.0,wall,5.0,,,7720.0,R.pool350,E9pool
482,2.0,S,6.0,bread,0.0,0,thread,7548.0,R.pool350,E9pool
483,2.0,S,6.0,head,1.0,1,head,8325.0,R.pool350,E9pool
484,2.0,S,6.0,thread,2.0,2,bed,7142.0,R.pool350,E9pool
485,2.0,S,6.0,bed,3.0,,,8848.0,R.pool350,E9pool
486,2.0,D,7.0,rice,0.0,0,rice,6748.0,R.pool350,E9pool
487,2.0,D,7.0,cat,1.0,1,cat,6446.0,R.pool350,E9pool
488,2.0,D,7.0,trash,2.0,2,trash,6700.0,R.pool350,E9pool
489,2.0,S,8.0,king,0.0,0,king,5729.0,R.pool350,E9pool
490,2.0,S,8.0,ring,1.0,1,wing,6014.0,R.pool350,E9pool
491,2.0,S,8.0,spring,2.0,2,spring,5486.0,R.pool350,E9pool
492,2.0,S,8.0,string,3.0,3,ring,7371.0,R.pool350,E9pool
493,2.0,S,8.0,wing,4.0,4,,7707.0,R.pool350,E9pool
494,2.0,S,9.0,blouse,0.0,0,blouse,6764.0,R.pool350,E9pool
495,2.0,S,9.0,house,1.0,1,house,7493.0,R.pool350,E9pool
496,2.0,S,9.0,mouse,2.0,2,mouse,5952.0,R.pool350,E9pool
497,2.0,D,10.0,coin,0.0,0,leaf,7508.0,R.pool350,E9pool
498,2.0,D,10.0,film,1.0,1,film,6527.0,R.pool350,E9pool
499,2.0,D,10.0,leaf,2.0,2,coin,5594.0,R.pool350,E9pool
500,2.0,D,10.0,train,3.0,3,den,7306.0,R.pool350,E9pool
501,2.0,D,10.0,map,4.0,4,,8821.0,R.pool350,E9pool
502,2.0,D,10.0,art,5.0,,,6514.0,R.pool350,E9pool
503,2.0,D,11.0,path,0.0,0,beach,9104.0,R.pool350,E9pool
504,2.0,D,11.0,nest,1.0,1,house,6489.0,R.pool350,E9pool
505,2.0,D,11.0,square,2.0,2,,5893.0,R.pool350,E9pool
506,2.0,D,11.0,wood,3.0,3,,5330.0,R.pool350,E9pool
507,2.0,D,11.0,beach,4.0,4,,8478.0,R.pool350,E9pool
508,2.0,S,12.0,deer,0.0,0,deer,6859.0,R.pool350,E9pool
509,2.0,S,12.0,sphere,1.0,1,hear,5536.0,R.pool350,E9pool
510,2.0,S,12.0,ear,2.0,2,ear,5883.0,R.pool350,E9pool
511,2.0,S,12.0,tear,3.0,3,tear,6296.0,R.pool350,E9pool
512,2.0,D,13.0,chest,0.0,0,chest,6865.0,R.pool350,E9pool
513,2.0,D,13.0,lane,1.0,1,lane,5918.0,R.pool350,E9pool
514,2.0,D,13.0,hair,2.0,2,,5577.0,R.pool350,E9pool
515,2.0,D,13.0,crown,3.0,,,5875.0,R.pool350,E9pool
516,2.0,D,14.0,toy,0.0,0,wreck,7352.0,R.pool350,E9pool
517,2.0,D,14.0,wreck,1.0,1,frown,6160.0,R.pool350,E9pool
518,2.0,D,14.0,frown,2.0,2,,6858.0,R.pool350,E9pool
519,2.0,S,15.0,cream,0.0,0,cream,11577.0,R.pool350,E9pool
520,2.0,S,15.0,team,1.0,1,team,6981.0,R.pool350,E9pool
521,2.0,S,15.0,steam,2.0,2,steam,6461.0,R.pool350,E9pool
522,2.0,D,16.0,spice,0.0,0,spice,6998.0,R.pool350,E9pool
523,2.0,D,16.0,heat,1.0,1,heat,5286.0,R.pool350,E9pool
524,2.0,D,16.0,shape,2.0,2,,4683.0,R.pool350,E9pool
525,2.0,D,16.0,pear,3.0,,,6049.0,R.pool350,E9pool
526,2.0,D,16.0,guest,4.0,,,8423.0,R.pool350,E9pool
527,2.0,S,17.0,boot,0.0,0,boot,9353.0,R.pool350,E9pool
528,2.0,S,17.0,suit,1.0,1,hoot,6423.0,R.pool350,E9pool
529,2.0,S,17.0,flute,2.0,2,loot,5862.0,R.pool350,E9pool
530,2.0,S,17.0,loot,3.0,3,brute,8676.0,R.pool350,E9pool
531,2.0,S,17.0,root,4.0,4,,6399.0,R.pool350,E9pool
532,2.0,S,17.0,brute,5.0,,,6911.0,R.pool350,E9pool
533,2.0,D,18.0,ant,0.0,0,air,7238.0,R.pool350,E9pool
534,2.0,D,18.0,air,1.0,1,heat,5443.0,R.pool350,E9pool
535,2.0,D,18.0,ink,2.0,2,breath,6882.0,R.pool350,E9pool
536,2.0,D,18.0,cloud,3.0,3,,6423.0,R.pool350,E9pool
537,2.0,D,18.0,seat,4.0,,,6429.0,R.pool350,E9pool
538,2.0,D,18.0,breath,5.0,,,7500.0,R.pool350,E9pool
539,2.0,S,19.0,jar,0.0,0,jar,7259.0,R.pool350,E9pool
540,2.0,S,19.0,bar,1.0,1,bar,5391.0,R.pool350,E9pool
541,2.0,S,19.0,car,2.0,2,,6120.0,R.pool350,E9pool
542,2.0,S,19.0,scar,3.0,,,6860.0,R.pool350,E9pool
543,2.0,S,19.0,star,4.0,,,7273.0,R.pool350,E9pool
544,2.0,S,20.0,mail,0.0,0,mail,6606.0,R.pool350,E9pool
545,2.0,S,20.0,sail,1.0,1,sail,6573.0,R.pool350,E9pool
546,2.0,S,20.0,trail,2.0,2,wail,6206.0,R.pool350,E9pool
547,2.0,S,20.0,wail,3.0,3,trail,7269.0,R.pool350,E9pool
548,2.0,S,20.0,tail,4.0,4,,7057.0,R.pool350,E9pool
549,2.0,S,20.0,jail,5.0,,,9366.0,R.pool350,E9pool
550,2.0,D,21.0,deck,0.0,0,,8986.0,R.pool350,E9pool
551,2.0,D,21.0,slice,1.0,,,6488.0,R.pool350,E9pool
552,2.0,D,21.0,rat,2.0,,,6716.0,R.pool350,E9pool
553,2.0,D,22.0,shell,0.0,0,tree,7218.0,R.pool350,E9pool
554,2.0,D,22.0,tree,1.0,1,broom,6016.0,R.pool350,E9pool
555,2.0,D,22.0,bowl,2.0,2,ground,5239.0,R.pool350,E9pool
556,2.0,D,22.0,broom,3.0,3,,7087.0,R.pool350,E9pool
557,2.0,D,22.0,test,4.0,,,7506.0,R.pool350,E9pool
558,2.0,D,22.0,ground,5.0,,,7901.0,R.pool350,E9pool
559,2.0,S,23.0,band,0.0,0,band,44330.0,R.pool350,E9pool
560,2.0,S,23.0,land,1.0,1,land,4777.0,R.pool350,E9pool
561,2.0,S,23.0,stand,2.0,2,stand,5852.0,R.pool350,E9pool
562,2.0,S,23.0,hand,3.0,3,hand,4970.0,R.pool350,E9pool
563,2.0,D,24.0,mare,0.0,0,mare,7005.0,R.pool350,E9pool
564,2.0,D,24.0,bell,1.0,1,beef,5660.0,R.pool350,E9pool
565,2.0,D,24.0,brain,2.0,2,,5794.0,R.pool350,E9pool
566,2.0,D,24.0,beef,3.0,,,8579.0,R.pool350,E9pool
567,2.0,S,25.0,bone,0.0,0,bone,6679.0,R.pool350,E9pool
568,2.0,S,25.0,phone,1.0,1,phone,6739.0,R.pool350,E9pool
569,2.0,S,25.0,stone,2.0,2,stone,6565.0,R.pool350,E9pool
570,2.0,D,26.0,beard,0.0,0,beards,5665.0,R.pool350,E9pool
571,2.0,D,26.0,hill,1.0,1,hill,5510.0,R.pool350,E9pool
572,2.0,D,26.0,dirt,2.0,2,dirt,5907.0,R.pool350,E9pool
573,2.0,D,26.0,card,3.0,3,,7375.0,R.pool350,E9pool
574,2.0,D,26.0,line,4.0,,,5703.0,R.pool350,E9pool
575,2.0,S,27.0,pie,0.0,0,pie,6228.0,R.pool350,E9pool
576,2.0,S,27.0,fly,1.0,1,fly,6083.0,R.pool350,E9pool
577,2.0,S,27.0,tie,2.0,2,tie,5600.0,R.pool350,E9pool
578,2.0,S,27.0,sky,3.0,3,,6344.0,R.pool350,E9pool
579,2.0,S,27.0,eye,4.0,,,5178.0,R.pool350,E9pool
580,3.0,P,0.0,hood,0.0,0,hood,5245.0,R.pool350,E9pool
581,3.0,P,0.0,wood,1.0,1,wood,403.0,R.pool350,E9pool
582,3.0,P,1.0,bath,0.0,0,bath,5697.0,R.pool350,E9pool
583,3.0,P,1.0,dawn,1.0,1,dawn,5614.0,R.pool350,E9pool
584,3.0,P,2.0,earth,0.0,0,earth,5886.0,R.pool350,E9pool
585,3.0,P,2.0,peach,1.0,1,peach,4898.0,R.pool350,E9pool
586,3.0,P,3.0,farm,0.0,0,farm,5163.0,R.pool350,E9pool
587,3.0,P,3.0,arm,1.0,1,arm,4542.0,R.pool350,E9pool
588,3.0,S,4.0,doll,0.0,0,ball,5029.0,R.pool350,E9pool
589,3.0,S,4.0,ball,1.0,1,brawl,4589.0,R.pool350,E9pool
590,3.0,S,4.0,shawl,2.0,2,,5078.0,R.pool350,E9pool
591,3.0,S,4.0,hall,3.0,3,,5453.0,R.pool350,E9pool
592,3.0,S,4.0,brawl,4.0,4,,5058.0,R.pool350,E9pool
593,3.0,S,4.0,wall,5.0,5,,4753.0,R.pool350,E9pool
594,3.0,D,5.0,rice,0.0,0,rice,4538.0,R.pool350,E9pool
595,3.0,D,5.0,cat,1.0,1,cat,4950.0,R.pool350,E9pool
596,3.0,D,5.0,trash,2.0,2,trash,4657.0,R.pool350,E9pool
597,3.0,D,6.0,path,0.0,0,,4716.0,R.pool350,E9pool
598,3.0,D,6.0,nest,1.0,1,,4785.0,R.pool350,E9pool
599,3.0,D,6.0,square,2.0,2,,5660.0,R.pool350,E9pool
600,3.0,D,6.0,wood,3.0,3,,4898.0,R.pool350,E9pool
601,3.0,D,6.0,beach,4.0,4,beach,4982.0,R.pool350,E9pool
602,3.0,D,7.0,coin,0.0,0,,5844.0,R.pool350,E9pool
603,3.0,D,7.0,film,1.0,1,,4996.0,R.pool350,E9pool
604,3.0,D,7.0,leaf,2.0,2,,5589.0,R.pool350,E9pool
605,3.0,D,7.0,train,3.0,3,live,5454.0,R.pool350,E9pool
606,3.0,D,7.0,map,4.0,4,art,5908.0,R.pool350,E9pool
607,3.0,D,7.0,art,5.0,,,5633.0,R.pool350,E9pool
608,3.0,D,8.0,neck,0.0,0,,5168.0,R.pool350,E9pool
609,3.0,D,8.0,town,1.0,1,,5105.0,R.pool350,E9pool
610,3.0,D,8.0,hat,2.0,2,hat,6006.0,R.pool350,E9pool
611,3.0,D,8.0,street,3.0,3,street,4694.0,R.pool350,E9pool
612,3.0,S,9.0,bread,0.0,0,bed,5727.0,R.pool350,E9pool
613,3.0,S,9.0,head,1.0,1,head,4794.0,R.pool350,E9pool
614,3.0,S,9.0,thread,2.0,2,bread,5211.0,R.pool350,E9pool
615,3.0,S,9.0,bed,3.0,,,6267.0,R.pool350,E9pool
616,3.0,S,10.0,blouse,0.0,0,blouse,5458.0,R.pool350,E9pool
617,3.0,S,10.0,house,1.0,1,house,5250.0,R.pool350,E9pool
618,3.0,S,10.0,mouse,2.0,2,mouse,5559.0,R.pool350,E9pool
619,3.0,S,11.0,king,0.0,0,king,5284.0,R.pool350,E9pool
620,3.0,S,11.0,ring,1.0,1,ring,4544.0,R.pool350,E9pool
621,3.0,S,11.0,spring,2.0,2,,4773.0,R.pool350,E9pool
622,3.0,S,11.0,string,3.0,3,,5567.0,R.pool350,E9pool
623,3.0,S,11.0,wing,4.0,4,,5480.0,R.pool350,E9pool
624,3.0,D,12.0,chest,0.0,0,,5479.0,R.pool350,E9pool
625,3.0,D,12.0,lane,1.0,1,ring,4533.0,R.pool350,E9pool
626,3.0,D,12.0,hair,2.0,2,crown,6609.0,R.pool350,E9pool
627,3.0,D,12.0,crown,3.0,3,,6609.0,R.pool350,E9pool
628,3.0,D,13.0,ant,0.0,0,ant,5359.0,R.pool350,E9pool
629,3.0,D,13.0,air,1.0,1,air,5315.0,R.pool350,E9pool
630,3.0,D,13.0,ink,2.0,2,breath,5182.0,R.pool350,E9pool
631,3.0,D,13.0,cloud,3.0,,,5584.0,R.pool350,E9pool
632,3.0,D,13.0,seat,4.0,,,6153.0,R.pool350,E9pool
633,3.0,D,13.0,breath,5.0,,,4956.0,R.pool350,E9pool
634,3.0,S,14.0,deer,0.0,0,,6696.0,R.pool350,E9pool
635,3.0,S,14.0,sphere,1.0,1,,5524.0,R.pool350,E9pool
636,3.0,S,14.0,ear,2.0,2,ear,4760.0,R.pool350,E9pool
637,3.0,S,14.0,tear,3.0,3,tear,5740.0,R.pool350,E9pool
638,3.0,D,15.0,spice,0.0,0,,4698.0,R.pool350,E9pool
639,3.0,D,15.0,heat,1.0,1,,5526.0,R.pool350,E9pool
640,3.0,D,15.0,shape,2.0,2,pear,4379.0,R.pool350,E9pool
641,3.0,D,15.0,pear,3.0,3,guest,5654.0,R.pool350,E9pool
642,3.0,D,15.0,guest,4.0,,,4892.0,R.pool350,E9pool
643,3.0,S,16.0,jar,0.0,0,car,5154.0,R.pool350,E9pool
644,3.0,S,16.0,bar,1.0,1,bar,5691.0,R.pool350,E9pool
645,3.0,S,16.0,car,2.0,2,,4641.0,R.pool350,E9pool
646,3.0,S,16.0,scar,3.0,3,star,5273.0,R.pool350,E9pool
647,3.0,S,16.0,star,4.0,,,5662.0,R.pool350,E9pool
648,3.0,S,17.0,boot,0.0,0,boot,5372.0,R.pool350,E9pool
649,3.0,S,17.0,suit,1.0,1,flute,4654.0,R.pool350,E9pool
650,3.0,S,17.0,flute,2.0,2,,5180.0,R.pool350,E9pool
651,3.0,S,17.0,loot,3.0,3,loot,6071.0,R.pool350,E9pool
652,3.0,S,17.0,root,4.0,4,brute,4763.0,R.pool350,E9pool
653,3.0,S,17.0,brute,5.0,5,,4776.0,R.pool350,E9pool
654,3.0,S,18.0,bone,0.0,0,,4864.0,R.pool350,E9pool
655,3.0,S,18.0,phone,1.0,1,bone,4591.0,R.pool350,E9pool
656,3.0,S,18.0,stone,2.0,2,stone,5257.0,R.pool350,E9pool
657,3.0,D,19.0,toy,0.0,0,bat,6161.0,R.pool350,E9pool
658,3.0,D,19.0,wreck,1.0,1,,4547.0,R.pool350,E9pool
659,3.0,D,19.0,frown,2.0,2,frown,5912.0,R.pool350,E9pool
660,3.0,D,20.0,deck,0.0,0,spice,6353.0,R.pool350,E9pool
661,3.0,D,20.0,slice,1.0,1,,5689.0,R.pool350,E9pool
662,3.0,D,20.0,rat,2.0,2,rat,5318.0,R.pool350,E9pool
663,3.0,S,21.0,mail,0.0,0,sail,5576.0,R.pool350,E9pool
664,3.0,S,21.0,sail,1.0,1,mail,4739.0,R.pool350,E9pool
665,3.0,S,21.0,trail,2.0,2,wail,4830.0,R.pool350,E9pool
666,3.0,S,21.0,wail,3.0,3,,4886.0,R.pool350,E9pool
667,3.0,S,21.0,tail,4.0,4,jail,6420.0,R.pool350,E9pool
668,3.0,S,21.0,jail,5.0,,,6786.0,R.pool350,E9pool
669,3.0,S,22.0,cream,0.0,0,cream,5235.0,R.pool350,E9pool
670,3.0,S,22.0,team,1.0,1,team,6242.0,R.pool350,E9pool
671,3.0,S,22.0,steam,2.0,2,steam,5640.0,R.pool350,E9pool
672,3.0,S,23.0,pie,0.0,0,,4902.0,R.pool350,E9pool
673,3.0,S,23.0,fly,1.0,1,fly,5243.0,R.pool350,E9pool
674,3.0,S,23.0,tie,2.0,2,tie,4979.0,R.pool350,E9pool
675,3.0,S,23.0,sky,3.0,3,,6021.0,R.pool350,E9pool
676,3.0,S,23.0,eye,4.0,4,eye,5267.0,R.pool350,E9pool
677,3.0,D,24.0,shell,0.0,0,,5227.0,R.pool350,E9pool
678,3.0,D,24.0,tree,1.0,1,,4891.0,R.pool350,E9pool
679,3.0,D,24.0,bowl,2.0,2,,6473.0,R.pool350,E9pool
680,3.0,D,24.0,broom,3.0,3,ground,6094.0,R.pool350,E9pool
681,3.0,D,24.0,test,4.0,4,,5978.0,R.pool350,E9pool
682,3.0,D,24.0,ground,5.0,,,5940.0,R.pool350,E9pool
683,3.0,S,25.0,band,0.0,0,,5164.0,R.pool350,E9pool
684,3.0,S,25.0,land,1.0,1,land,5911.0,R.pool350,E9pool
685,3.0,S,25.0,stand,2.0,2,stand,5002.0,R.pool350,E9pool
686,3.0,S,25.0,hand,3.0,3,hand,6155.0,R.pool350,E9pool
687,3.0,D,26.0,beard,0.0,0,,5770.0,R.pool350,E9pool
688,3.0,D,26.0,hill,1.0,1,,4739.0,R.pool350,E9pool
689,3.0,D,26.0,dirt,2.0,2,,5392.0,R.pool350,E9pool
690,3.0,D,26.0,card,3.0,3,line,5609.0,R.pool350,E9pool
691,3.0,D,26.0,line,4.0,,,5937.0,R.pool350,E9pool
692,3.0,D,27.0,mare,0.0,0,mare,5157.0,R.pool350,E9pool
693,3.0,D,27.0,bell,1.0,1,,5897.0,R.pool350,E9pool
694,3.0,D,27.0,brain,2.0,2,,5148.0,R.pool350,E9pool
695,3.0,D,27.0,beef,3.0,3,beef,6744.0,R.pool350,E9pool
696,4.0,P,0.0,bath,0.0,0,bath,5233.0,R.pool350,E9pool
697,4.0,P,0.0,dawn,1.0,1,dawn,5073.0,R.pool350,E9pool
698,4.0,P,1.0,earth,0.0,0,earth,5433.0,R.pool350,E9pool
699,4.0,P,1.0,peach,1.0,1,peach,5176.0,R.pool350,E9pool
700,4.0,P,2.0,farm,0.0,0,farm,5585.0,R.pool350,E9pool
701,4.0,P,2.0,arm,1.0,1,arm,4954.0,R.pool350,E9pool
702,4.0,P,3.0,hood,0.0,0,hood,5695.0,R.pool350,E9pool
703,4.0,P,3.0,wood,1.0,1,wood,5124.0,R.pool350,E9pool
704,4.0,S,4.0,bone,0.0,0,bone,5980.0,R.pool350,E9pool
705,4.0,S,4.0,phone,1.0,1,,5109.0,R.pool350,E9pool
706,4.0,S,4.0,stone,2.0,2,stone,6066.0,R.pool350,E9pool
707,4.0,S,5.0,doll,0.0,0,doll,5748.0,R.pool350,E9pool
708,4.0,S,5.0,ball,1.0,1,ball,5167.0,R.pool350,E9pool
709,4.0,S,5.0,shawl,2.0,2,shawl,5249.0,R.pool350,E9pool
710,4.0,S,5.0,hall,3.0,3,,6169.0,R.pool350,E9pool
711,4.0,S,5.0,brawl,4.0,4,,5434.0,R.pool350,E9pool
712,4.0,S,5.0,wall,5.0,5,,5361.0,R.pool350,E9pool
713,4.0,D,6.0,rice,0.0,0,rice,5645.0,R.pool350,E9pool
714,4.0,D,6.0,cat,1.0,1,cat,5508.0,R.pool350,E9pool
715,4.0,D,6.0,trash,2.0,2,trash,5465.0,R.pool350,E9pool
716,4.0,D,7.0,coin,0.0,0,coin,5243.0,R.pool350,E9pool
717,4.0,D,7.0,film,1.0,1,stone,5858.0,R.pool350,E9pool
718,4.0,D,7.0,leaf,2.0,2,,5904.0,R.pool350,E9pool
719,4.0,D,7.0,train,3.0,3,leaf,6109.0,R.pool350,E9pool
720,4.0,D,7.0,map,4.0,4,,5824.0,R.pool350,E9pool
721,4.0,D,7.0,art,5.0,5,,6135.0,R.pool350,E9pool
722,4.0,S,8.0,king,0.0,0,king,5448.0,R.pool350,E9pool
723,4.0,S,8.0,ring,1.0,1,,5007.0,R.pool350,E9pool
724,4.0,S,8.0,spring,2.0,2,ring,5360.0,R.pool350,E9pool
725,4.0,S,8.0,string,3.0,3,,5931.0,R.pool350,E9pool
726,4.0,S,8.0,wing,4.0,4,wing,5694.0,R.pool350,E9pool
727,4.0,D,9.0,neck,0.0,0,neck,13189.0,R.pool350,E9pool
728,4.0,D,9.0,town,1.0,1,,5175.0,R.pool350,E9pool
729,4.0,D,9.0,hat,2.0,2,,5769.0,R.pool350,E9pool
730,4.0,D,9.0,street,3.0,3,cooked,6218.0,R.pool350,E9pool
731,4.0,S,10.0,bread,0.0,0,speed,8489.0,R.pool350,E9pool
732,4.0,S,10.0,head,1.0,1,,5747.0,R.pool350,E9pool
733,4.0,S,10.0,thread,2.0,2,bed,5398.0,R.pool350,E9pool
734,4.0,S,10.0,bed,3.0,,,6431.0,R.pool350,E9pool
735,4.0,D,11.0,path,0.0,0,,6122.0,R.pool350,E9pool
736,4.0,D,11.0,nest,1.0,1,,5341.0,R.pool350,E9pool
737,4.0,D,11.0,square,2.0,2,wood,5360.0,R.pool350,E9pool
738,4.0,D,11.0,wood,3.0,3,beach,5891.0,R.pool350,E9pool
739,4.0,D,11.0,beach,4.0,,,5495.0,R.pool350,E9pool
740,4.0,D,12.0,toy,0.0,0,toy,5788.0,R.pool350,E9pool
741,4.0,D,12.0,wreck,1.0,1,wreck,5348.0,R.pool350,E9pool
742,4.0,D,12.0,frown,2.0,2,frown,5936.0,R.pool350,E9pool
743,4.0,S,13.0,boot,0.0,0,boot,5376.0,R.pool350,E9pool
744,4.0,S,13.0,suit,1.0,1,suit,5242.0,R.pool350,E9pool
745,4.0,S,13.0,flute,2.0,2,loot,5690.0,R.pool350,E9pool
746,4.0,S,13.0,loot,3.0,3,flute,6238.0,R.pool350,E9pool
747,4.0,S,13.0,root,4.0,4,,7381.0,R.pool350,E9pool
748,4.0,S,13.0,brute,5.0,5,,6141.0,R.pool350,E9pool
749,4.0,S,14.0,cream,0.0,0,cream,5213.0,R.pool350,E9pool
750,4.0,S,14.0,team,1.0,1,team,5062.0,R.pool350,E9pool
751,4.0,S,14.0,steam,2.0,2,steam,5596.0,R.pool350,E9pool
752,4.0,D,15.0,spice,0.0,0,spice,5051.0,R.pool350,E9pool
753,4.0,D,15.0,heat,1.0,1,heat,5506.0,R.pool350,E9pool
754,4.0,D,15.0,shape,2.0,2,,5382.0,R.pool350,E9pool
755,4.0,D,15.0,pear,3.0,3,pear,6576.0,R.pool350,E9pool
756,4.0,D,15.0,guest,4.0,4,cheered,5896.0,R.pool350,E9pool
757,4.0,S,16.0,deer,0.0,0,deer,5215.0,R.pool350,E9pool
758,4.0,S,16.0,sphere,1.0,1,,5064.0,R.pool350,E9pool
759,4.0,S,16.0,ear,2.0,2,,5271.0,R.pool350,E9pool
760,4.0,S,16.0,tear,3.0,3,tear,6134.0,R.pool350,E9pool
761,4.0,D,17.0,chest,0.0,0,,5743.0,R.pool350,E9pool
762,4.0,D,17.0,lane,1.0,1,,5442.0,R.pool350,E9pool
763,4.0,D,17.0,hair,2.0,2,hair,7345.0,R.pool350,E9pool
764,4.0,D,17.0,crown,3.0,3,crown,6779.0,R.pool350,E9pool
765,4.0,S,18.0,jar,0.0,0,bar,6066.0,R.pool350,E9pool
766,4.0,S,18.0,bar,1.0,1,,5335.0,R.pool350,E9pool
767,4.0,S,18.0,car,2.0,2,,5474.0,R.pool350,E9pool
768,4.0,S,18.0,scar,3.0,3,,6128.0,R.pool350,E9pool
769,4.0,S,18.0,star,4.0,4,star,6787.0,R.pool350,E9pool
770,4.0,D,19.0,ant,0.0,0,,5248.0,R.pool350,E9pool
771,4.0,D,19.0,air,1.0,1,,5158.0,R.pool350,E9pool
772,4.0,D,19.0,ink,2.0,2,cloud,5065.0,R.pool350,E9pool
773,4.0,D,19.0,cloud,3.0,3,,6608.0,R.pool350,E9pool
774,4.0,D,19.0,seat,4.0,4,breath,5455.0,R.pool350,E9pool
775,4.0,D,19.0,breath,5.0,,,5855.0,R.pool350,E9pool
776,4.0,S,20.0,blouse,0.0,0,,5181.0,R.pool350,E9pool
777,4.0,S,20.0,house,1.0,1,house,5319.0,R.pool350,E9pool
778,4.0,S,20.0,mouse,2.0,2,mouse,5227.0,R.pool350,E9pool
779,4.0,D,21.0,beard,0.0,0,,5287.0,R.pool350,E9pool
780,4.0,D,21.0,hill,1.0,1,,5540.0,R.pool350,E9pool
781,4.0,D,21.0,dirt,2.0,2,,5743.0,R.pool350,E9pool
782,4.0,D,21.0,card,3.0,3,cold,5458.0,R.pool350,E9pool
783,4.0,D,21.0,line,4.0,4,line,5433.0,R.pool350,E9pool
784,4.0,D,22.0,shell,0.0,0,,5623.0,R.pool350,E9pool
785,4.0,D,22.0,tree,1.0,1,,5543.0,R.pool350,E9pool
786,4.0,D,22.0,bowl,2.0,2,,5282.0,R.pool350,E9pool
787,4.0,D,22.0,broom,3.0,3,,5808.0,R.pool350,E9pool
788,4.0,D,22.0,test,4.0,4,,5336.0,R.pool350,E9pool
789,4.0,D,22.0,ground,5.0,5,gound,5763.0,R.pool350,E9pool
790,4.0,S,23.0,mail,0.0,0,,6006.0,R.pool350,E9pool
791,4.0,S,23.0,sail,1.0,1,,5198.0,R.pool350,E9pool
792,4.0,S,23.0,trail,2.0,2,,5319.0,R.pool350,E9pool
793,4.0,S,23.0,wail,3.0,3,mail,5563.0,R.pool350,E9pool
794,4.0,S,23.0,tail,4.0,4,wail,6149.0,R.pool350,E9pool
795,4.0,S,23.0,jail,5.0,5,jail,5720.0,R.pool350,E9pool
796,4.0,S,24.0,band,0.0,0,,5167.0,R.pool350,E9pool
797,4.0,S,24.0,land,1.0,1,land,6505.0,R.pool350,E9pool
798,4.0,S,24.0,stand,2.0,2,,5093.0,R.pool350,E9pool
799,4.0,S,24.0,hand,3.0,3,hand,5162.0,R.pool350,E9pool
800,4.0,D,25.0,deck,0.0,0,,7582.0,R.pool350,E9pool
801,4.0,D,25.0,slice,1.0,1,slice,5806.0,R.pool350,E9pool
802,4.0,D,25.0,rat,2.0,2,rat,6070.0,R.pool350,E9pool
803,4.0,D,26.0,mare,0.0,0,mare,5655.0,R.pool350,E9pool
804,4.0,D,26.0,bell,1.0,1,bell,5373.0,R.pool350,E9pool
805,4.0,D,26.0,brain,2.0,2,,5631.0,R.pool350,E9pool
806,4.0,D,26.0,beef,3.0,3,beef,5671.0,R.pool350,E9pool
807,4.0,S,27.0,pie,0.0,0,,6388.0,R.pool350,E9pool
808,4.0,S,27.0,fly,1.0,1,,5876.0,R.pool350,E9pool
809,4.0,S,27.0,tie,2.0,2,tie,6113.0,R.pool350,E9pool
810,4.0,S,27.0,sky,3.0,3,,5566.0,R.pool350,E9pool
811,4.0,S,27.0,eye,4.0,4,eye,5224.0,R.pool350,E9pool
812,5.0,P,0.0,earth,0.0,0,rice,6949.0,R.pool350,E9pool
813,5.0,P,0.0,peach,1.0,1,peach,6983.0,R.pool350,E9pool
814,5.0,P,1.0,farm,0.0,0,farm,5498.0,R.pool350,E9pool
815,5.0,P,1.0,arm,1.0,1,arm,6207.0,R.pool350,E9pool
816,5.0,P,2.0,hood,0.0,0,cold,6241.0,R.pool350,E9pool
817,5.0,P,2.0,wood,1.0,1,wood,6615.0,R.pool350,E9pool
818,5.0,P,3.0,bath,0.0,0,bath,6230.0,R.pool350,E9pool
819,5.0,P,3.0,dawn,1.0,1,dawn,6317.0,R.pool350,E9pool
820,5.0,D,4.0,neck,0.0,0,neck,5690.0,R.pool350,E9pool
821,5.0,D,4.0,town,1.0,1,town,5350.0,R.pool350,E9pool
822,5.0,D,4.0,hat,2.0,2,hat,6569.0,R.pool350,E9pool
823,5.0,D,4.0,street,3.0,3,street,8098.0,R.pool350,E9pool
824,5.0,S,5.0,doll,0.0,0,doll,6276.0,R.pool350,E9pool
825,5.0,S,5.0,ball,1.0,1,hall,6121.0,R.pool350,E9pool
826,5.0,S,5.0,shawl,2.0,2,shawl,6564.0,R.pool350,E9pool
827,5.0,S,5.0,hall,3.0,3,brawl,8950.0,R.pool350,E9pool
828,5.0,S,5.0,brawl,4.0,4,wall,7406.0,R.pool350,E9pool
829,5.0,S,5.0,wall,5.0,5,all,5980.0,R.pool350,E9pool
830,5.0,D,6.0,rice,0.0,0,rice,6706.0,R.pool350,E9pool
831,5.0,D,6.0,cat,1.0,1,cat,5765.0,R.pool350,E9pool
832,5.0,D,6.0,trash,2.0,2,trash,5767.0,R.pool350,E9pool
833,5.0,S,7.0,bread,0.0,0,head,5604.0,R.pool350,E9pool
834,5.0,S,7.0,head,1.0,1,bread,5116.0,R.pool350,E9pool
835,5.0,S,7.0,thread,2.0,2,bed,5816.0,R.pool350,E9pool
836,5.0,S,7.0,bed,3.0,,,6544.0,R.pool350,E9pool
837,5.0,S,8.0,king,0.0,0,king,5439.0,R.pool350,E9pool
838,5.0,S,8.0,ring,1.0,1,ring,6062.0,R.pool350,E9pool
839,5.0,S,8.0,spring,2.0,2,spring,7900.0,R.pool350,E9pool
840,5.0,S,8.0,string,3.0,3,string,6375.0,R.pool350,E9pool
841,5.0,S,8.0,wing,4.0,4,wing,6239.0,R.pool350,E9pool
842,5.0,D,9.0,coin,0.0,0,coin,6437.0,R.pool350,E9pool
843,5.0,D,9.0,film,1.0,1,film,6226.0,R.pool350,E9pool
844,5.0,D,9.0,leaf,2.0,2,leaf,6921.0,R.pool350,E9pool
845,5.0,D,9.0,train,3.0,3,art,7109.0,R.pool350,E9pool
846,5.0,D,9.0,map,4.0,4,,7047.0,R.pool350,E9pool
847,5.0,D,9.0,art,5.0,,,6972.0,R.pool350,E9pool
848,5.0,S,10.0,bone,0.0,0,bone,6188.0,R.pool350,E9pool
849,5.0,S,10.0,phone,1.0,1,phone,5444.0,R.pool350,E9pool
850,5.0,S,10.0,stone,2.0,2,stone,5682.0,R.pool350,E9pool
851,5.0,D,11.0,path,0.0,0,path,5820.0,R.pool350,E9pool
852,5.0,D,11.0,nest,1.0,1,next,5635.0,R.pool350,E9pool
853,5.0,D,11.0,square,2.0,2,square,6283.0,R.pool350,E9pool
854,5.0,D,11.0,wood,3.0,3,beach,6767.0,R.pool350,E9pool
855,5.0,D,11.0,beach,4.0,4,,6096.0,R.pool350,E9pool
856,5.0,S,12.0,deer,0.0,0,deer,5852.0,R.pool350,E9pool
857,5.0,S,12.0,sphere,1.0,1,sphere,5810.0,R.pool350,E9pool
858,5.0,S,12.0,ear,2.0,2,fear,7724.0,R.pool350,E9pool
859,5.0,S,12.0,tear,3.0,3,,5757.0,R.pool350,E9pool
860,5.0,D,13.0,toy,0.0,0,toy,6639.0,R.pool350,E9pool
861,5.0,D,13.0,wreck,1.0,1,wreck,6950.0,R.pool350,E9pool
862,5.0,D,13.0,frown,2.0,2,frown,7222.0,R.pool350,E9pool
863,5.0,S,14.0,boot,0.0,0,boot,6765.0,R.pool350,E9pool
864,5.0,S,14.0,suit,1.0,1,suit,5638.0,R.pool350,E9pool
865,5.0,S,14.0,flute,2.0,2,flute,5357.0,R.pool350,E9pool
866,5.0,S,14.0,loot,3.0,3,loot,6081.0,R.pool350,E9pool
867,5.0,S,14.0,root,4.0,4,root,6765.0,R.pool350,E9pool
868,5.0,S,14.0,brute,5.0,5,brute,6983.0,R.pool350,E9pool
869,5.0,S,15.0,jar,0.0,0,jar,5941.0,R.pool350,E9pool
870,5.0,S,15.0,bar,1.0,1,bar,6022.0,R.pool350,E9pool
871,5.0,S,15.0,car,2.0,2,car,5734.0,R.pool350,E9pool
872,5.0,S,15.0,scar,3.0,3,star,7001.0,R.pool350,E9pool
873,5.0,S,15.0,star,4.0,4,,6201.0,R.pool350,E9pool
874,5.0,D,16.0,chest,0.0,0,chest,6681.0,R.pool350,E9pool
875,5.0,D,16.0,lane,1.0,1,crown,6124.0,R.pool350,E9pool
876,5.0,D,16.0,hair,2.0,2,,5456.0,R.pool350,E9pool
877,5.0,D,16.0,crown,3.0,,,6262.0,R.pool350,E9pool
878,5.0,D,17.0,ant,0.0,0,ant,5737.0,R.pool350,E9pool
879,5.0,D,17.0,air,1.0,1,air,5187.0,R.pool350,E9pool
880,5.0,D,17.0,ink,2.0,2,ink,5173.0,R.pool350,E9pool
881,5.0,D,17.0,cloud,3.0,3,breath,6919.0,R.pool350,E9pool
882,5.0,D,17.0,seat,4.0,4,,5864.0,R.pool350,E9pool
883,5.0,D,17.0,breath,5.0,,,6343.0,R.pool350,E9pool
884,5.0,D,18.0,spice,0.0,0,heat,5875.0,R.pool350,E9pool
885,5.0,D,18.0,heat,1.0,1,guest,6712.0,R.pool350,E9pool
886,5.0,D,18.0,shape,2.0,2,pear,6876.0,R.pool350,E9pool
887,5.0,D,18.0,pear,3.0,3,,6105.0,R.pool350,E9pool
888,5.0,D,18.0,guest,4.0,,,6340.0,R.pool350,E9pool
889,5.0,S,19.0,cream,0.0,0,cream,6828.0,R.pool350,E9pool
890,5.0,S,19.0,team,1.0,1,team,5625.0,R.pool350,E9pool
891,5.0,S,19.0,steam,2.0,2,steam,5897.0,R.pool350,E9pool
892,5.0,D,20.0,beard,0.0,0,beard,5726.0,R.pool350,E9pool
893,5.0,D,20.0,hill,1.0,1,hill,5889.0,R.pool350,E9pool
894,5.0,D,20.0,dirt,2.0,2,dirt,5846.0,R.pool350,E9pool
895,5.0,D,20.0,card,3.0,3,line,6580.0,R.pool350,E9pool
896,5.0,D,20.0,line,4.0,4,,5100.0,R.pool350,E9pool
897,5.0,D,21.0,shell,0.0,0,shell,5363.0,R.pool350,E9pool
898,5.0,D,21.0,tree,1.0,1,tree,5255.0,R.pool350,E9pool
899,5.0,D,21.0,bowl,2.0,2,bowl,6502.0,R.pool350,E9pool
900,5.0,D,21.0,broom,3.0,3,ground,6162.0,R.pool350,E9pool
901,5.0,D,21.0,test,4.0,4,,6714.0,R.pool350,E9pool
902,5.0,D,21.0,ground,5.0,,,6887.0,R.pool350,E9pool
903,5.0,D,22.0,mare,0.0,0,mare,6493.0,R.pool350,E9pool
904,5.0,D,22.0,bell,1.0,1,beef,5898.0,R.pool350,E9pool
905,5.0,D,22.0,brain,2.0,2,bell,6438.0,R.pool350,E9pool
906,5.0,D,22.0,beef,3.0,3,,7227.0,R.pool350,E9pool
907,5.0,S,23.0,band,0.0,0,band,5739.0,R.pool350,E9pool
908,5.0,S,23.0,land,1.0,1,land,5527.0,R.pool350,E9pool
909,5.0,S,23.0,stand,2.0,2,hand,5651.0,R.pool350,E9pool
910,5.0,S,23.0,hand,3.0,3,sand,5409.0,R.pool350,E9pool
911,5.0,S,24.0,blouse,0.0,0,blouse,5214.0,R.pool350,E9pool
912,5.0,S,24.0,house,1.0,1,house,5735.0,R.pool350,E9pool
913,5.0,S,24.0,mouse,2.0,2,mouse,5529.0,R.pool350,E9pool
914,5.0,S,25.0,mail,0.0,0,mail,5233.0,R.pool350,E9pool
915,5.0,S,25.0,sail,1.0,1,sail,5425.0,R.pool350,E9pool
916,5.0,S,25.0,trail,2.0,2,trail,5808.0,R.pool350,E9pool
917,5.0,S,25.0,wail,3.0,3,wail,5849.0,R.pool350,E9pool
918,5.0,S,25.0,tail,4.0,4,tail,6694.0,R.pool350,E9pool
919,5.0,S,25.0,jail,5.0,5,pail,6115.0,R.pool350,E9pool
920,5.0,D,26.0,deck,0.0,0,deck,6384.0,R.pool350,E9pool
921,5.0,D,26.0,slice,1.0,1,slice,5865.0,R.pool350,E9pool
922,5.0,D,26.0,rat,2.0,2,rat,5279.0,R.pool350,E9pool
923,5.0,S,27.0,pie,0.0,0,pie,5425.0,R.pool350,E9pool
924,5.0,S,27.0,fly,1.0,1,lie,5593.0,R.pool350,E9pool
925,5.0,S,27.0,tie,2.0,2,fly,6625.0,R.pool350,E9pool
926,5.0,S,27.0,sky,3.0,3,eye,5967.0,R.pool350,E9pool
927,5.0,S,27.0,eye,4.0,4,try,6177.0,R.pool350,E9pool
928,6.0,P,0.0,bath,0.0,0,bath,6296.0,R.pool350,E9pool
929,6.0,P,0.0,dawn,1.0,,,7342.0,R.pool350,E9pool
930,6.0,P,1.0,hood,0.0,0,hood,9591.0,R.pool350,E9pool
931,6.0,P,1.0,wood,1.0,1,wood,6868.0,R.pool350,E9pool
932,6.0,P,2.0,farm,0.0,0,farm,6725.0,R.pool350,E9pool
933,6.0,P,2.0,arm,1.0,1,arm,6752.0,R.pool350,E9pool
934,6.0,P,3.0,earth,0.0,0,earth,6245.0,R.pool350,E9pool
935,6.0,P,3.0,peach,1.0,1,peach,5755.0,R.pool350,E9pool
936,6.0,D,4.0,neck,0.0,0,neck,5023.0,R.pool350,E9pool
937,6.0,D,4.0,town,1.0,1,town,5767.0,R.pool350,E9pool
938,6.0,D,4.0,hat,2.0,2,hat,7978.0,R.pool350,E9pool
939,6.0,D,4.0,street,3.0,3,street,5984.0,R.pool350,E9pool
940,6.0,S,5.0,king,0.0,0,king,5198.0,R.pool350,E9pool
941,6.0,S,5.0,ring,1.0,1,wing,5559.0,R.pool350,E9pool
942,6.0,S,5.0,spring,2.0,2,spring,8217.0,R.pool350,E9pool
943,6.0,S,5.0,string,3.0,3,sting,6943.0,R.pool350,E9pool
944,6.0,S,5.0,wing,4.0,,,5866.0,R.pool350,E9pool
945,6.0,D,6.0,path,0.0,0,path,5520.0,R.pool350,E9pool
946,6.0,D,6.0,nest,1.0,1,wood,5387.0,R.pool350,E9pool
947,6.0,D,6.0,square,2.0,2,beach,6189.0,R.pool350,E9pool
948,6.0,D,6.0,wood,3.0,,,5814.0,R.pool350,E9pool
949,6.0,D,6.0,beach,4.0,,,5765.0,R.pool350,E9pool
950,6.0,S,7.0,bread,0.0,0,bread,5517.0,R.pool350,E9pool
951,6.0,S,7.0,head,1.0,1,head,5745.0,R.pool350,E9pool
952,6.0,S,7.0,thread,2.0,2,bed,6669.0,R.pool350,E9pool
953,6.0,S,7.0,bed,3.0,,,6696.0,R.pool350,E9pool
954,6.0,D,8.0,rice,0.0,0,trash,5506.0,R.pool350,E9pool
955,6.0,D,8.0,cat,1.0,,,6536.0,R.pool350,E9pool
956,6.0,D,8.0,trash,2.0,,,6177.0,R.pool350,E9pool
957,6.0,S,9.0,doll,0.0,0,doll,6619.0,R.pool350,E9pool
958,6.0,S,9.0,ball,1.0,1,ball,4754.0,R.pool350,E9pool
959,6.0,S,9.0,shawl,2.0,2,shawl,5725.0,R.pool350,E9pool
960,6.0,S,9.0,hall,3.0,3,hall,4625.0,R.pool350,E9pool
961,6.0,S,9.0,brawl,4.0,4,wall,5721.0,R.pool350,E9pool
962,6.0,S,9.0,wall,5.0,,,5782.0,R.pool350,E9pool
963,6.0,D,10.0,coin,0.0,0,leaf,4882.0,R.pool350,E9pool
964,6.0,D,10.0,film,1.0,1,map,5256.0,R.pool350,E9pool
965,6.0,D,10.0,leaf,2.0,2,art,5910.0,R.pool350,E9pool
966,6.0,D,10.0,train,3.0,,,6378.0,R.pool350,E9pool
967,6.0,D,10.0,map,4.0,,,6707.0,R.pool350,E9pool
968,6.0,D,10.0,art,5.0,,,7016.0,R.pool350,E9pool
969,6.0,S,11.0,bone,0.0,0,stone,5609.0,R.pool350,E9pool
970,6.0,S,11.0,phone,1.0,,,5137.0,R.pool350,E9pool
971,6.0,S,11.0,stone,2.0,,,5077.0,R.pool350,E9pool
972,6.0,S,12.0,cream,0.0,0,team,4764.0,R.pool350,E9pool
973,6.0,S,12.0,team,1.0,1,steam,5143.0,R.pool350,E9pool
974,6.0,S,12.0,steam,2.0,,,5067.0,R.pool350,E9pool
975,6.0,D,13.0,ant,0.0,0,breath,6147.0,R.pool350,E9pool
976,6.0,D,13.0,air,1.0,,,2229.0,R.pool350,E9pool
977,6.0,D,13.0,ink,2.0,,,7839.0,R.pool350,E9pool
978,6.0,D,13.0,cloud,3.0,,,5676.0,R.pool350,E9pool
979,6.0,D,13.0,seat,4.0,,,5282.0,R.pool350,E9pool
980,6.0,D,13.0,breath,5.0,,,6895.0,R.pool350,E9pool
981,6.0,S,14.0,boot,0.0,0,boot,6336.0,R.pool350,E9pool
982,6.0,S,14.0,suit,1.0,1,suit,7009.0,R.pool350,E9pool
983,6.0,S,14.0,flute,2.0,2,flute,5385.0,R.pool350,E9pool
984,6.0,S,14.0,loot,3.0,3,,6353.0,R.pool350,E9pool
985,6.0,S,14.0,root,4.0,,,5539.0,R.pool350,E9pool
986,6.0,S,14.0,brute,5.0,,,5318.0,R.pool350,E9pool
987,6.0,D,15.0,chest,0.0,0,hair,5774.0,R.pool350,E9pool
988,6.0,D,15.0,lane,1.0,1,crown,6446.0,R.pool350,E9pool
989,6.0,D,15.0,hair,2.0,,,5974.0,R.pool350,E9pool
990,6.0,D,15.0,crown,3.0,,,5310.0,R.pool350,E9pool
991,6.0,S,16.0,jar,0.0,0,jar,5025.0,R.pool350,E9pool
992,6.0,S,16.0,bar,1.0,1,bar,5706.0,R.pool350,E9pool
993,6.0,S,16.0,car,2.0,2,hard,4782.0,R.pool350,E9pool
994,6.0,S,16.0,scar,3.0,3,star,5744.0,R.pool350,E9pool
995,6.0,S,16.0,star,4.0,,,6323.0,R.pool350,E9pool
996,6.0,D,17.0,spice,0.0,0,spice,5520.0,R.pool350,E9pool
997,6.0,D,17.0,heat,1.0,1,hot,5125.0,R.pool350,E9pool
998,6.0,D,17.0,shape,2.0,2,pear,6497.0,R.pool350,E9pool
999,6.0,D,17.0,pear,3.0,3,guest,5660.0,R.pool350,E9pool
1000,6.0,D,17.0,guest,4.0,,,5378.0,R.pool350,E9pool
1001,6.0,D,18.0,toy,0.0,0,toy,5514.0,R.pool350,E9pool
1002,6.0,D,18.0,wreck,1.0,1,cake,5245.0,R.pool350,E9pool
1003,6.0,D,18.0,frown,2.0,2,frown,5124.0,R.pool350,E9pool
1004,6.0,S,19.0,deer,0.0,0,deer,6074.0,R.pool350,E9pool
1005,6.0,S,19.0,sphere,1.0,1,steer,4575.0,R.pool350,E9pool
1006,6.0,S,19.0,ear,2.0,2,tear,6274.0,R.pool350,E9pool
1007,6.0,S,19.0,tear,3.0,,,5791.0,R.pool350,E9pool
1008,6.0,S,20.0,mail,0.0,0,wail,6182.0,R.pool350,E9pool
1009,6.0,S,20.0,sail,1.0,1,tail,6224.0,R.pool350,E9pool
1010,6.0,S,20.0,trail,2.0,2,jail,5471.0,R.pool350,E9pool
1011,6.0,S,20.0,wail,3.0,,,6684.0,R.pool350,E9pool
1012,6.0,S,20.0,tail,4.0,,,4865.0,R.pool350,E9pool
1013,6.0,S,20.0,jail,5.0,,,5328.0,R.pool350,E9pool
1014,6.0,S,21.0,pie,0.0,0,pie,6568.0,R.pool350,E9pool
1015,6.0,S,21.0,fly,1.0,1,cry,5521.0,R.pool350,E9pool
1016,6.0,S,21.0,tie,2.0,2,eye,6085.0,R.pool350,E9pool
1017,6.0,S,21.0,sky,3.0,,,5050.0,R.pool350,E9pool
1018,6.0,S,21.0,eye,4.0,,,5129.0,R.pool350,E9pool
1019,6.0,D,22.0,deck,0.0,0,rat,5636.0,R.pool350,E9pool
1020,6.0,D,22.0,slice,1.0,,,5554.0,R.pool350,E9pool
1021,6.0,D,22.0,rat,2.0,,,5661.0,R.pool350,E9pool
1022,6.0,S,23.0,band,0.0,0,stand,6006.0,R.pool350,E9pool
1023,6.0,S,23.0,land,1.0,1,hand,5166.0,R.pool350,E9pool
1024,6.0,S,23.0,stand,2.0,,,5736.0,R.pool350,E9pool
1025,6.0,S,23.0,hand,3.0,,,4738.0,R.pool350,E9pool
1026,6.0,D,24.0,mare,0.0,0,brain,6851.0,R.pool350,E9pool
1027,6.0,D,24.0,bell,1.0,1,beef,4889.0,R.pool350,E9pool
1028,6.0,D,24.0,brain,2.0,,,4830.0,R.pool350,E9pool
1029,6.0,D,24.0,beef,3.0,,,5591.0,R.pool350,E9pool
1030,6.0,S,25.0,blouse,0.0,0,blouse,5889.0,R.pool350,E9pool
1031,6.0,S,25.0,house,1.0,1,house,5853.0,R.pool350,E9pool
1032,6.0,S,25.0,mouse,2.0,2,mouse,4434.0,R.pool350,E9pool
1033,6.0,D,26.0,beard,0.0,0,beard,4651.0,R.pool350,E9pool
1034,6.0,D,26.0,hill,1.0,1,line,5490.0,R.pool350,E9pool
1035,6.0,D,26.0,dirt,2.0,,,5358.0,R.pool350,E9pool
1036,6.0,D,26.0,card,3.0,,,5441.0,R.pool350,E9pool
1037,6.0,D,26.0,line,4.0,,,6328.0,R.pool350,E9pool
1038,6.0,D,27.0,shell,0.0,0,bowl,5590.0,R.pool350,E9pool
1039,6.0,D,27.0,tree,1.0,1,ground,5030.0,R.pool350,E9pool
1040,6.0,D,27.0,bowl,2.0,,,5471.0,R.pool350,E9pool
1041,6.0,D,27.0,broom,3.0,,,6325.0,R.pool350,E9pool
1042,6.0,D,27.0,test,4.0,,,5208.0,R.pool350,E9pool
1043,6.0,D,27.0,ground,5.0,,,7129.0,R.pool350,E9pool
1044,7.0,P,0.0,bath,0.0,0,bath,7865.0,R.pool350,E9pool
1045,7.0,P,0.0,dawn,1.0,1,dawn,6052.0,R.pool350,E9pool
1046,7.0,P,1.0,hood,0.0,0,hoop,8713.0,R.pool350,E9pool
1047,7.0,P,1.0,wood,1.0,1,wood,7194.0,R.pool350,E9pool
1048,7.0,P,2.0,earth,0.0,0,earth,8050.0,R.pool350,E9pool
1049,7.0,P,2.0,peach,1.0,1,peach,7336.0,R.pool350,E9pool
1050,7.0,P,3.0,farm,0.0,0,farm,7091.0,R.pool350,E9pool
1051,7.0,P,3.0,arm,1.0,1,arm,5655.0,R.pool350,E9pool
1052,7.0,S,4.0,doll,0.0,0,doll,5139.0,R.pool350,E9pool
1053,7.0,S,4.0,ball,1.0,1,ball,5862.0,R.pool350,E9pool
1054,7.0,S,4.0,shawl,2.0,2,shawl,6052.0,R.pool350,E9pool
1055,7.0,S,4.0,hall,3.0,3,hall,7123.0,R.pool350,E9pool
1056,7.0,S,4.0,brawl,4.0,4,brawl,7157.0,R.pool350,E9pool
1057,7.0,S,4.0,wall,5.0,5,,6373.0,R.pool350,E9pool
1058,7.0,S,5.0,bread,0.0,0,bread,5793.0,R.pool350,E9pool
1059,7.0,S,5.0,head,1.0,1,head,6690.0,R.pool350,E9pool
1060,7.0,S,5.0,thread,2.0,2,,6230.0,R.pool350,E9pool
1061,7.0,S,5.0,bed,3.0,3,bed,6526.0,R.pool350,E9pool
1062,7.0,S,6.0,king,0.0,0,king,5356.0,R.pool350,E9pool
1063,7.0,S,6.0,ring,1.0,1,ring,6152.0,R.pool350,E9pool
1064,7.0,S,6.0,spring,2.0,2,,5513.0,R.pool350,E9pool
1065,7.0,S,6.0,string,3.0,3,spring,5477.0,R.pool350,E9pool
1066,7.0,S,6.0,wing,4.0,4,wing,7370.0,R.pool350,E9pool
1067,7.0,D,7.0,path,0.0,0,path,6423.0,R.pool350,E9pool
1068,7.0,D,7.0,nest,1.0,1,nest,6455.0,R.pool350,E9pool
1069,7.0,D,7.0,square,2.0,2,square,5908.0,R.pool350,E9pool
1070,7.0,D,7.0,wood,3.0,3,woods,5993.0,R.pool350,E9pool
1071,7.0,D,7.0,beach,4.0,4,beach,6472.0,R.pool350,E9pool
1072,7.0,D,8.0,neck,0.0,0,neck,5845.0,R.pool350,E9pool
1073,7.0,D,8.0,town,1.0,1,,6180.0,R.pool350,E9pool
1074,7.0,D,8.0,hat,2.0,2,yarn,6453.0,R.pool350,E9pool
1075,7.0,D,8.0,street,3.0,3,street,8186.0,R.pool350,E9pool
1076,7.0,D,9.0,coin,0.0,0,coin,7226.0,R.pool350,E9pool
1077,7.0,D,9.0,film,1.0,1,film,5601.0,R.pool350,E9pool
1078,7.0,D,9.0,leaf,2.0,2,leaf,5440.0,R.pool350,E9pool
1079,7.0,D,9.0,train,3.0,3,train,5896.0,R.pool350,E9pool
1080,7.0,D,9.0,map,4.0,4,candy,6740.0,R.pool350,E9pool
1081,7.0,D,9.0,art,5.0,5,,7198.0,R.pool350,E9pool
1082,7.0,S,10.0,bone,0.0,0,,6327.0,R.pool350,E9pool
1083,7.0,S,10.0,phone,1.0,1,phone,6473.0,R.pool350,E9pool
1084,7.0,S,10.0,stone,2.0,2,stone,6397.0,R.pool350,E9pool
1085,7.0,D,11.0,rice,0.0,0,rice,5639.0,R.pool350,E9pool
1086,7.0,D,11.0,cat,1.0,1,cat,7038.0,R.pool350,E9pool
1087,7.0,D,11.0,trash,2.0,2,trash,7579.0,R.pool350,E9pool
1088,7.0,D,12.0,chest,0.0,0,chest,6166.0,R.pool350,E9pool
1089,7.0,D,12.0,lane,1.0,1,lane,4968.0,R.pool350,E9pool
1090,7.0,D,12.0,hair,2.0,2,hair,5721.0,R.pool350,E9pool
1091,7.0,D,12.0,crown,3.0,3,crown,6517.0,R.pool350,E9pool
1092,7.0,S,13.0,boot,0.0,0,boot,6164.0,R.pool350,E9pool
1093,7.0,S,13.0,suit,1.0,1,,5655.0,R.pool350,E9pool
1094,7.0,S,13.0,flute,2.0,2,loot,5620.0,R.pool350,E9pool
1095,7.0,S,13.0,loot,3.0,3,flute,6925.0,R.pool350,E9pool
1096,7.0,S,13.0,root,4.0,4,root,8135.0,R.pool350,E9pool
1097,7.0,S,13.0,brute,5.0,5,brute,7504.0,R.pool350,E9pool
1098,7.0,S,14.0,deer,0.0,0,deer,5714.0,R.pool350,E9pool
1099,7.0,S,14.0,sphere,1.0,1,sphere,5749.0,R.pool350,E9pool
1100,7.0,S,14.0,ear,2.0,2,ear,5976.0,R.pool350,E9pool
1101,7.0,S,14.0,tear,3.0,3,tear,5833.0,R.pool350,E9pool
1102,7.0,D,15.0,toy,0.0,0,toy,5712.0,R.pool350,E9pool
1103,7.0,D,15.0,wreck,1.0,1,wreck,5195.0,R.pool350,E9pool
1104,7.0,D,15.0,frown,2.0,2,frown,5917.0,R.pool350,E9pool
1105,7.0,D,16.0,spice,0.0,0,spice,4706.0,R.pool350,E9pool
1106,7.0,D,16.0,heat,1.0,1,heat,5064.0,R.pool350,E9pool
1107,7.0,D,16.0,shape,2.0,2,,6445.0,R.pool350,E9pool
1108,7.0,D,16.0,pear,3.0,3,pear,6116.0,R.pool350,E9pool
1109,7.0,D,16.0,guest,4.0,4,guest,7064.0,R.pool350,E9pool
1110,7.0,S,17.0,jar,0.0,0,jar,6839.0,R.pool350,E9pool
1111,7.0,S,17.0,bar,1.0,1,bar,5412.0,R.pool350,E9pool
1112,7.0,S,17.0,car,2.0,2,car,5733.0,R.pool350,E9pool
1113,7.0,S,17.0,scar,3.0,3,scar,6295.0,R.pool350,E9pool
1114,7.0,S,17.0,star,4.0,4,star,5740.0,R.pool350,E9pool
1115,7.0,D,18.0,ant,0.0,0,ant,6718.0,R.pool350,E9pool
1116,7.0,D,18.0,air,1.0,1,air,4992.0,R.pool350,E9pool
1117,7.0,D,18.0,ink,2.0,2,ink,4747.0,R.pool350,E9pool
1118,7.0,D,18.0,cloud,3.0,3,cloud,5111.0,R.pool350,E9pool
1119,7.0,D,18.0,seat,4.0,4,,5762.0,R.pool350,E9pool
1120,7.0,D,18.0,breath,5.0,5,breath,7285.0,R.pool350,E9pool
1121,7.0,S,19.0,blouse,0.0,0,blouse,5009.0,R.pool350,E9pool
1122,7.0,S,19.0,house,1.0,1,house,5778.0,R.pool350,E9pool
1123,7.0,S,19.0,mouse,2.0,2,mouse,6306.0,R.pool350,E9pool
1124,7.0,D,20.0,mare,0.0,0,mare,6477.0,R.pool350,E9pool
1125,7.0,D,20.0,bell,1.0,1,bell,4763.0,R.pool350,E9pool
1126,7.0,D,20.0,brain,2.0,2,brain,5797.0,R.pool350,E9pool
1127,7.0,D,20.0,beef,3.0,3,beef,5774.0,R.pool350,E9pool
1128,7.0,D,21.0,beard,0.0,0,beard,4943.0,R.pool350,E9pool
1129,7.0,D,21.0,hill,1.0,1,hill,5025.0,R.pool350,E9pool
1130,7.0,D,21.0,dirt,2.0,2,soil,6107.0,R.pool350,E9pool
1131,7.0,D,21.0,card,3.0,3,,5198.0,R.pool350,E9pool
1132,7.0,D,21.0,line,4.0,4,,7735.0,R.pool350,E9pool
1133,7.0,S,22.0,cream,0.0,0,cream,5966.0,R.pool350,E9pool
1134,7.0,S,22.0,team,1.0,1,team,6609.0,R.pool350,E9pool
1135,7.0,S,22.0,steam,2.0,2,steam,5111.0,R.pool350,E9pool
1136,7.0,S,23.0,mail,0.0,0,mail,5507.0,R.pool350,E9pool
1137,7.0,S,23.0,sail,1.0,1,sail,4799.0,R.pool350,E9pool
1138,7.0,S,23.0,trail,2.0,2,rail,8041.0,R.pool350,E9pool
1139,7.0,S,23.0,wail,3.0,3,wail,6269.0,R.pool350,E9pool
1140,7.0,S,23.0,tail,4.0,4,tail,6649.0,R.pool350,E9pool
1141,7.0,S,23.0,jail,5.0,5,jail,7063.0,R.pool350,E9pool
1142,7.0,S,24.0,band,0.0,0,band,5079.0,R.pool350,E9pool
1143,7.0,S,24.0,land,1.0,1,land,4989.0,R.pool350,E9pool
1144,7.0,S,24.0,stand,2.0,2,stand,5846.0,R.pool350,E9pool
1145,7.0,S,24.0,hand,3.0,3,hand,5382.0,R.pool350,E9pool
1146,7.0,D,25.0,shell,0.0,0,,5068.0,R.pool350,E9pool
1147,7.0,D,25.0,tree,1.0,1,bowl,5882.0,R.pool350,E9pool
1148,7.0,D,25.0,bowl,2.0,2,wood,5990.0,R.pool350,E9pool
1149,7.0,D,25.0,broom,3.0,3,brush,8031.0,R.pool350,E9pool
1150,7.0,D,25.0,test,4.0,4,ground,5676.0,R.pool350,E9pool
1151,7.0,D,25.0,ground,5.0,,,10466.0,R.pool350,E9pool
1152,7.0,S,26.0,pie,0.0,0,pie,5510.0,R.pool350,E9pool
1153,7.0,S,26.0,fly,1.0,1,,6626.0,R.pool350,E9pool
1154,7.0,S,26.0,tie,2.0,2,tie,6808.0,R.pool350,E9pool
1155,7.0,S,26.0,sky,3.0,3,sky,7959.0,R.pool350,E9pool
1156,7.0,S,26.0,eye,4.0,4,eye,6351.0,R.pool350,E9pool
1157,7.0,D,27.0,deck,0.0,0,deck,5931.0,R.pool350,E9pool
1158,7.0,D,27.0,slice,1.0,1,slice,5934.0,R.pool350,E9pool
1159,7.0,D,27.0,rat,2.0,2,rat,6792.0,R.pool350,E9pool
1160,8.0,P,0.0,hood,0.0,0,hood,7182.0,R.pool350,E9pool
1161,8.0,P,0.0,wood,1.0,1,wood,6543.0,R.pool350,E9pool
1162,8.0,P,1.0,farm,0.0,0,mike,7427.0,R.pool350,E9pool
1163,8.0,P,1.0,arm,1.0,1,arm,7688.0,R.pool350,E9pool
1164,8.0,P,2.0,earth,0.0,0,earth,8762.0,R.pool350,E9pool
1165,8.0,P,2.0,peach,1.0,1,peach,6169.0,R.pool350,E9pool
1166,8.0,P,3.0,bath,0.0,0,nightmare,5811.0,R.pool350,E9pool
1167,8.0,P,3.0,dawn,1.0,1,dawn,6827.0,R.pool350,E9pool
1168,8.0,S,4.0,king,0.0,0,king,6277.0,R.pool350,E9pool
1169,8.0,S,4.0,ring,1.0,1,ring,6610.0,R.pool350,E9pool
1170,8.0,S,4.0,spring,2.0,2,string,8506.0,R.pool350,E9pool
1171,8.0,S,4.0,string,3.0,3,,7083.0,R.pool350,E9pool
1172,8.0,S,4.0,wing,4.0,4,,6311.0,R.pool350,E9pool
1173,8.0,S,5.0,doll,0.0,0,doll,5629.0,R.pool350,E9pool
1174,8.0,S,5.0,ball,1.0,1,ball,6389.0,R.pool350,E9pool
1175,8.0,S,5.0,shawl,2.0,2,shawl,8109.0,R.pool350,E9pool
1176,8.0,S,5.0,hall,3.0,3,wall,6047.0,R.pool350,E9pool
1177,8.0,S,5.0,brawl,4.0,4,,5590.0,R.pool350,E9pool
1178,8.0,S,5.0,wall,5.0,,,6871.0,R.pool350,E9pool
1179,8.0,D,6.0,neck,0.0,0,neck,6361.0,R.pool350,E9pool
1180,8.0,D,6.0,town,1.0,1,cell,6538.0,R.pool350,E9pool
1181,8.0,D,6.0,hat,2.0,2,,5980.0,R.pool350,E9pool
1182,8.0,D,6.0,street,3.0,3,,8253.0,R.pool350,E9pool
1183,8.0,D,7.0,coin,0.0,0,coin,5906.0,R.pool350,E9pool
1184,8.0,D,7.0,film,1.0,1,film,5214.0,R.pool350,E9pool
1185,8.0,D,7.0,leaf,2.0,2,,6215.0,R.pool350,E9pool
1186,8.0,D,7.0,train,3.0,3,,6455.0,R.pool350,E9pool
1187,8.0,D,7.0,map,4.0,4,art,5812.0,R.pool350,E9pool
1188,8.0,D,7.0,art,5.0,,,5869.0,R.pool350,E9pool
1189,8.0,S,8.0,blouse,0.0,0,blouse,6302.0,R.pool350,E9pool
1190,8.0,S,8.0,house,1.0,1,house,6506.0,R.pool350,E9pool
1191,8.0,S,8.0,mouse,2.0,2,mouse,5429.0,R.pool350,E9pool
1192,8.0,D,9.0,rice,0.0,0,,5891.0,R.pool350,E9pool
1193,8.0,D,9.0,cat,1.0,1,cat,5512.0,R.pool350,E9pool
1194,8.0,D,9.0,trash,2.0,2,trash,5804.0,R.pool350,E9pool
1195,8.0,D,10.0,path,0.0,0,path,6078.0,R.pool350,E9pool
1196,8.0,D,10.0,nest,1.0,1,,5421.0,R.pool350,E9pool
1197,8.0,D,10.0,square,2.0,2,,7243.0,R.pool350,E9pool
1198,8.0,D,10.0,wood,3.0,3,,5314.0,R.pool350,E9pool
1199,8.0,D,10.0,beach,4.0,4,beach,6558.0,R.pool350,E9pool
1200,8.0,S,11.0,bread,0.0,0,bread,5526.0,R.pool350,E9pool
1201,8.0,S,11.0,head,1.0,1,head,6274.0,R.pool350,E9pool
1202,8.0,S,11.0,thread,2.0,2,,5623.0,R.pool350,E9pool
1203,8.0,S,11.0,bed,3.0,3,,5550.0,R.pool350,E9pool
1204,8.0,D,12.0,chest,0.0,0,chest,5386.0,R.pool350,E9pool
1205,8.0,D,12.0,lane,1.0,1,,6651.0,R.pool350,E9pool
1206,8.0,D,12.0,hair,2.0,2,,6745.0,R.pool350,E9pool
1207,8.0,D,12.0,crown,3.0,3,,6531.0,R.pool350,E9pool
1208,8.0,S,13.0,jar,0.0,0,jar,12787.0,R.pool350,E9pool
1209,8.0,S,13.0,bar,1.0,1,bar,6438.0,R.pool350,E9pool
1210,8.0,S,13.0,car,2.0,2,car,6964.0,R.pool350,E9pool
1211,8.0,S,13.0,scar,3.0,3,scar,8948.0,R.pool350,E9pool
1212,8.0,S,13.0,star,4.0,4,,7556.0,R.pool350,E9pool
1213,8.0,S,14.0,deer,0.0,0,deer,5403.0,R.pool350,E9pool
1214,8.0,S,14.0,sphere,1.0,1,sphere,7076.0,R.pool350,E9pool
1215,8.0,S,14.0,ear,2.0,2,ear,6904.0,R.pool350,E9pool
1216,8.0,S,14.0,tear,3.0,3,tear,7939.0,R.pool350,E9pool
1217,8.0,S,15.0,cream,0.0,0,cream,5250.0,R.pool350,E9pool
1218,8.0,S,15.0,team,1.0,1,team,5353.0,R.pool350,E9pool
1219,8.0,S,15.0,steam,2.0,2,steam,4635.0,R.pool350,E9pool
1220,8.0,D,16.0,toy,0.0,0,toy,5831.0,R.pool350,E9pool
1221,8.0,D,16.0,wreck,1.0,1,,5415.0,R.pool350,E9pool
1222,8.0,D,16.0,frown,2.0,2,frown,4823.0,R.pool350,E9pool
1223,8.0,D,17.0,spice,0.0,0,spice,4995.0,R.pool350,E9pool
1224,8.0,D,17.0,heat,1.0,1,heat,7060.0,R.pool350,E9pool
1225,8.0,D,17.0,shape,2.0,2,shape,6449.0,R.pool350,E9pool
1226,8.0,D,17.0,pear,3.0,3,,6927.0,R.pool350,E9pool
1227,8.0,D,17.0,guest,4.0,4,guest,5289.0,R.pool350,E9pool
1228,8.0,D,18.0,ant,0.0,0,ant,5041.0,R.pool350,E9pool
1229,8.0,D,18.0,air,1.0,1,air,5841.0,R.pool350,E9pool
1230,8.0,D,18.0,ink,2.0,2,,5119.0,R.pool350,E9pool
1231,8.0,D,18.0,cloud,3.0,3,,5339.0,R.pool350,E9pool
1232,8.0,D,18.0,seat,4.0,4,,8135.0,R.pool350,E9pool
1233,8.0,D,18.0,breath,5.0,5,breath,4816.0,R.pool350,E9pool
1234,8.0,S,19.0,boot,0.0,0,boot,5074.0,R.pool350,E9pool
1235,8.0,S,19.0,suit,1.0,1,suit,5617.0,R.pool350,E9pool
1236,8.0,S,19.0,flute,2.0,2,flute,5280.0,R.pool350,E9pool
1237,8.0,S,19.0,loot,3.0,3,,8006.0,R.pool350,E9pool
1238,8.0,S,19.0,root,4.0,4,loot,5516.0,R.pool350,E9pool
1239,8.0,S,19.0,brute,5.0,,,5864.0,R.pool350,E9pool
1240,8.0,D,20.0,mare,0.0,0,mare,5124.0,R.pool350,E9pool
1241,8.0,D,20.0,bell,1.0,1,bell,6232.0,R.pool350,E9pool
1242,8.0,D,20.0,brain,2.0,2,,7127.0,R.pool350,E9pool
1243,8.0,D,20.0,beef,3.0,3,beef,4921.0,R.pool350,E9pool
1244,8.0,S,21.0,bone,0.0,0,,9914.0,R.pool350,E9pool
1245,8.0,S,21.0,phone,1.0,1,phone,5802.0,R.pool350,E9pool
1246,8.0,S,21.0,stone,2.0,2,stone,7266.0,R.pool350,E9pool
1247,8.0,D,22.0,deck,0.0,0,deck,5847.0,R.pool350,E9pool
1248,8.0,D,22.0,slice,1.0,1,splice,7373.0,R.pool350,E9pool
1249,8.0,D,22.0,rat,2.0,2,rat,6437.0,R.pool350,E9pool
1250,8.0,S,23.0,band,0.0,0,band,5717.0,R.pool350,E9pool
1251,8.0,S,23.0,land,1.0,1,land,5064.0,R.pool350,E9pool
1252,8.0,S,23.0,stand,2.0,2,sand,4631.0,R.pool350,E9pool
1253,8.0,S,23.0,hand,3.0,3,hand,6447.0,R.pool350,E9pool
1254,8.0,S,24.0,mail,0.0,0,mail,4942.0,R.pool350,E9pool
1255,8.0,S,24.0,sail,1.0,1,sail,5474.0,R.pool350,E9pool
1256,8.0,S,24.0,trail,2.0,2,,4975.0,R.pool350,E9pool
1257,8.0,S,24.0,wail,3.0,3,jail,5425.0,R.pool350,E9pool
1258,8.0,S,24.0,tail,4.0,,,4617.0,R.pool350,E9pool
1259,8.0,S,24.0,jail,5.0,,,5858.0,R.pool350,E9pool
1260,8.0,S,25.0,pie,0.0,0,pie,5037.0,R.pool350,E9pool
1261,8.0,S,25.0,fly,1.0,1,fly,6261.0,R.pool350,E9pool
1262,8.0,S,25.0,tie,2.0,2,,6226.0,R.pool350,E9pool
1263,8.0,S,25.0,sky,3.0,3,eye,4361.0,R.pool350,E9pool
1264,8.0,S,25.0,eye,4.0,,,5757.0,R.pool350,E9pool
1265,8.0,D,26.0,shell,0.0,0,shell,4610.0,R.pool350,E9pool
1266,8.0,D,26.0,tree,1.0,1,tree,5772.0,R.pool350,E9pool
1267,8.0,D,26.0,bowl,2.0,2,bowl,5901.0,R.pool350,E9pool
1268,8.0,D,26.0,broom,3.0,3,,6169.0,R.pool350,E9pool
1269,8.0,D,26.0,test,4.0,4,ground,5074.0,R.pool350,E9pool
1270,8.0,D,26.0,ground,5.0,,,5176.0,R.pool350,E9pool
1271,8.0,D,27.0,beard,0.0,0,beard,5288.0,R.pool350,E9pool
1272,8.0,D,27.0,hill,1.0,1,,5725.0,R.pool350,E9pool
1273,8.0,D,27.0,dirt,2.0,2,dirt,6977.0,R.pool350,E9pool
1274,8.0,D,27.0,card,3.0,3,,6441.0,R.pool350,E9pool
1275,8.0,D,27.0,line,4.0,4,line,5223.0,R.pool350,E9pool
1276,9.0,P,0.0,earth,0.0,0,earth,5459.0,R.pool350,E9pool
1277,9.0,P,0.0,peach,1.0,1,peach,5496.0,R.pool350,E9pool
1278,9.0,P,1.0,hood,0.0,0,hood,4965.0,R.pool350,E9pool
1279,9.0,P,1.0,wood,1.0,1,wood,5393.0,R.pool350,E9pool
1280,9.0,P,2.0,bath,0.0,0,mat,4844.0,R.pool350,E9pool
1281,9.0,P,2.0,dawn,1.0,1,dawn,4733.0,R.pool350,E9pool
1282,9.0,P,3.0,farm,0.0,0,farm,5210.0,R.pool350,E9pool
1283,9.0,P,3.0,arm,1.0,1,arm,4794.0,R.pool350,E9pool
1284,9.0,D,4.0,coin,0.0,0,coin,4852.0,R.pool350,E9pool
1285,9.0,D,4.0,film,1.0,1,film,5411.0,R.pool350,E9pool
1286,9.0,D,4.0,leaf,2.0,2,map,5780.0,R.pool350,E9pool
1287,9.0,D,4.0,train,3.0,3,,6037.0,R.pool350,E9pool
1288,9.0,D,4.0,map,4.0,4,art,5867.0,R.pool350,E9pool
1289,9.0,D,4.0,art,5.0,,,5729.0,R.pool350,E9pool
1290,9.0,S,5.0,blouse,0.0,0,blouse,4904.0,R.pool350,E9pool
1291,9.0,S,5.0,house,1.0,1,house,5317.0,R.pool350,E9pool
1292,9.0,S,5.0,mouse,2.0,2,mouse,5449.0,R.pool350,E9pool
1293,9.0,S,6.0,bread,0.0,0,,5572.0,R.pool350,E9pool
1294,9.0,S,6.0,head,1.0,1,head,6118.0,R.pool350,E9pool
1295,9.0,S,6.0,thread,2.0,2,thread,5089.0,R.pool350,E9pool
1296,9.0,S,6.0,bed,3.0,3,bed,5943.0,R.pool350,E9pool
1297,9.0,S,7.0,king,0.0,0,king,5390.0,R.pool350,E9pool
1298,9.0,S,7.0,ring,1.0,1,ring,4983.0,R.pool350,E9pool
1299,9.0,S,7.0,spring,2.0,2,,5784.0,R.pool350,E9pool
1300,9.0,S,7.0,string,3.0,3,,4946.0,R.pool350,E9pool
1301,9.0,S,7.0,wing,4.0,4,wing,4596.0,R.pool350,E9pool
1302,9.0,D,8.0,path,0.0,0,path,5422.0,R.pool350,E9pool
1303,9.0,D,8.0,nest,1.0,1,,5007.0,R.pool350,E9pool
1304,9.0,D,8.0,square,2.0,2,wood,4799.0,R.pool350,E9pool
1305,9.0,D,8.0,wood,3.0,3,beach,5545.0,R.pool350,E9pool
1306,9.0,D,8.0,beach,4.0,,,5468.0,R.pool350,E9pool
1307,9.0,D,9.0,rice,0.0,0,rice,5674.0,R.pool350,E9pool
1308,9.0,D,9.0,cat,1.0,1,cat,6064.0,R.pool350,E9pool
1309,9.0,D,9.0,trash,2.0,2,trash,5246.0,R.pool350,E9pool
1310,9.0,D,10.0,neck,0.0,0,,6134.0,R.pool350,E9pool
1311,9.0,D,10.0,town,1.0,1,town,5328.0,R.pool350,E9pool
1312,9.0,D,10.0,hat,2.0,2,hat,4700.0,R.pool350,E9pool
1313,9.0,D,10.0,street,3.0,3,street,6112.0,R.pool350,E9pool
1314,9.0,S,11.0,doll,0.0,0,,4954.0,R.pool350,E9pool
1315,9.0,S,11.0,ball,1.0,1,ball,5380.0,R.pool350,E9pool
1316,9.0,S,11.0,shawl,2.0,2,hall,5734.0,R.pool350,E9pool
1317,9.0,S,11.0,hall,3.0,3,brawl,6448.0,R.pool350,E9pool
1318,9.0,S,11.0,brawl,4.0,4,wall,5679.0,R.pool350,E9pool
1319,9.0,S,11.0,wall,5.0,,,4940.0,R.pool350,E9pool
1320,9.0,D,12.0,ant,0.0,0,ant,5772.0,R.pool350,E9pool
1321,9.0,D,12.0,air,1.0,1,air,5733.0,R.pool350,E9pool
1322,9.0,D,12.0,ink,2.0,2,,5817.0,R.pool350,E9pool
1323,9.0,D,12.0,cloud,3.0,3,,4769.0,R.pool350,E9pool
1324,9.0,D,12.0,seat,4.0,4,breath,5779.0,R.pool350,E9pool
1325,9.0,D,12.0,breath,5.0,,,5140.0,R.pool350,E9pool
1326,9.0,S,13.0,jar,0.0,0,,4575.0,R.pool350,E9pool
1327,9.0,S,13.0,bar,1.0,1,bar,4713.0,R.pool350,E9pool
1328,9.0,S,13.0,car,2.0,2,car,5239.0,R.pool350,E9pool
1329,9.0,S,13.0,scar,3.0,3,scar,6590.0,R.pool350,E9pool
1330,9.0,S,13.0,star,4.0,4,star,4685.0,R.pool350,E9pool
1331,9.0,D,14.0,toy,0.0,0,toy,5047.0,R.pool350,E9pool
1332,9.0,D,14.0,wreck,1.0,1,wreck,4766.0,R.pool350,E9pool
1333,9.0,D,14.0,frown,2.0,2,frown,5224.0,R.pool350,E9pool
1334,9.0,S,15.0,deer,0.0,0,deer,5177.0,R.pool350,E9pool
1335,9.0,S,15.0,sphere,1.0,1,sphere,4706.0,R.pool350,E9pool
1336,9.0,S,15.0,ear,2.0,2,,5152.0,R.pool350,E9pool
1337,9.0,S,15.0,tear,3.0,3,tear,6211.0,R.pool350,E9pool
1338,9.0,S,16.0,boot,0.0,0,boot,5531.0,R.pool350,E9pool
1339,9.0,S,16.0,suit,1.0,1,suit,5326.0,R.pool350,E9pool
1340,9.0,S,16.0,flute,2.0,2,flute,4618.0,R.pool350,E9pool
1341,9.0,S,16.0,loot,3.0,3,,6027.0,R.pool350,E9pool
1342,9.0,S,16.0,root,4.0,4,loot,6026.0,R.pool350,E9pool
1343,9.0,S,16.0,brute,5.0,,,5721.0,R.pool350,E9pool
1344,9.0,D,17.0,chest,0.0,0,chest,4970.0,R.pool350,E9pool
1345,9.0,D,17.0,lane,1.0,1,lane,5507.0,R.pool350,E9pool
1346,9.0,D,17.0,hair,2.0,2,,4913.0,R.pool350,E9pool
1347,9.0,D,17.0,crown,3.0,3,crown,4724.0,R.pool350,E9pool
1348,9.0,D,18.0,spice,0.0,0,,5555.0,R.pool350,E9pool
1349,9.0,D,18.0,heat,1.0,1,heat,7396.0,R.pool350,E9pool
1350,9.0,D,18.0,shape,2.0,2,,5476.0,R.pool350,E9pool
1351,9.0,D,18.0,pear,3.0,3,pear,4777.0,R.pool350,E9pool
1352,9.0,D,18.0,guest,4.0,4,guest,4853.0,R.pool350,E9pool
1353,9.0,S,19.0,bone,0.0,0,bone,4981.0,R.pool350,E9pool
1354,9.0,S,19.0,phone,1.0,1,phone,6774.0,R.pool350,E9pool
1355,9.0,S,19.0,stone,2.0,2,stone,5383.0,R.pool350,E9pool
1356,9.0,S,20.0,pie,0.0,0,pie,5859.0,R.pool350,E9pool
1357,9.0,S,20.0,fly,1.0,1,,4938.0,R.pool350,E9pool
1358,9.0,S,20.0,tie,2.0,2,,5342.0,R.pool350,E9pool
1359,9.0,S,20.0,sky,3.0,3,eye,4672.0,R.pool350,E9pool
1360,9.0,S,20.0,eye,4.0,,,5184.0,R.pool350,E9pool
1361,9.0,S,21.0,cream,0.0,0,cream,6336.0,R.pool350,E9pool
1362,9.0,S,21.0,team,1.0,1,team,4962.0,R.pool350,E9pool
1363,9.0,S,21.0,steam,2.0,2,steam,5061.0,R.pool350,E9pool
1364,9.0,S,22.0,mail,0.0,0,ale,4615.0,R.pool350,E9pool
1365,9.0,S,22.0,sail,1.0,1,sail,4993.0,R.pool350,E9pool
1366,9.0,S,22.0,trail,2.0,2,,5978.0,R.pool350,E9pool
1367,9.0,S,22.0,wail,3.0,3,trail,4939.0,R.pool350,E9pool
1368,9.0,S,22.0,tail,4.0,4,tail,5071.0,R.pool350,E9pool
1369,9.0,S,22.0,jail,5.0,5,jail,4908.0,R.pool350,E9pool
1370,9.0,D,23.0,mare,0.0,0,mare,4877.0,R.pool350,E9pool
1371,9.0,D,23.0,bell,1.0,1,bell,5571.0,R.pool350,E9pool
1372,9.0,D,23.0,brain,2.0,2,brain,5861.0,R.pool350,E9pool
1373,9.0,D,23.0,beef,3.0,3,beef,4962.0,R.pool350,E9pool
1374,9.0,D,24.0,beard,0.0,0,beard,4998.0,R.pool350,E9pool
1375,9.0,D,24.0,hill,1.0,1,hill,5119.0,R.pool350,E9pool
1376,9.0,D,24.0,dirt,2.0,2,dirt,4963.0,R.pool350,E9pool
1377,9.0,D,24.0,card,3.0,3,card,5245.0,R.pool350,E9pool
1378,9.0,D,24.0,line,4.0,4,line,5806.0,R.pool350,E9pool
1379,9.0,S,25.0,band,0.0,0,band,4614.0,R.pool350,E9pool
1380,9.0,S,25.0,land,1.0,1,land,4535.0,R.pool350,E9pool
1381,9.0,S,25.0,stand,2.0,2,stand,5491.0,R.pool350,E9pool
1382,9.0,S,25.0,hand,3.0,3,hand,5144.0,R.pool350,E9pool
1383,9.0,D,26.0,deck,0.0,0,deck,4988.0,R.pool350,E9pool
1384,9.0,D,26.0,slice,1.0,1,slice,4717.0,R.pool350,E9pool
1385,9.0,D,26.0,rat,2.0,2,rat,5465.0,R.pool350,E9pool
1386,9.0,D,27.0,shell,0.0,0,,4602.0,R.pool350,E9pool
1387,9.0,D,27.0,tree,1.0,1,,6371.0,R.pool350,E9pool
1388,9.0,D,27.0,bowl,2.0,2,,5996.0,R.pool350,E9pool
1389,9.0,D,27.0,broom,3.0,3,broom,5397.0,R.pool350,E9pool
1390,9.0,D,27.0,test,4.0,4,test,5175.0,R.pool350,E9pool
1391,9.0,D,27.0,ground,5.0,5,ground,5441.0,R.pool350,E9pool
1392,11.0,P,0.0,bath,0.0,0,bath,5816.0,R.pool350,E9pool
1393,11.0,P,0.0,dawn,1.0,1,dawn,5623.0,R.pool350,E9pool
1394,11.0,P,1.0,earth,0.0,0,earth,5307.0,R.pool350,E9pool
1395,11.0,P,1.0,peach,1.0,1,peach,4791.0,R.pool350,E9pool
1396,11.0,P,2.0,farm,0.0,0,farm,4715.0,R.pool350,E9pool
1397,11.0,P,2.0,arm,1.0,1,arm,5568.0,R.pool350,E9pool
1398,11.0,P,3.0,hood,0.0,0,,5847.0,R.pool350,E9pool
1399,11.0,P,3.0,wood,1.0,1,wood,5590.0,R.pool350,E9pool
1400,11.0,S,4.0,cream,0.0,0,cream,5125.0,R.pool350,E9pool
1401,11.0,S,4.0,team,1.0,1,team,6089.0,R.pool350,E9pool
1402,11.0,S,4.0,steam,2.0,2,steam,7430.0,R.pool350,E9pool
1403,11.0,D,5.0,neck,0.0,0,neck,5929.0,R.pool350,E9pool
1404,11.0,D,5.0,town,1.0,1,town,5844.0,R.pool350,E9pool
1405,11.0,D,5.0,hat,2.0,2,,6291.0,R.pool350,E9pool
1406,11.0,D,5.0,street,3.0,3,street,5999.0,R.pool350,E9pool
1407,11.0,S,6.0,king,0.0,0,king,6934.0,R.pool350,E9pool
1408,11.0,S,6.0,ring,1.0,1,ring,5857.0,R.pool350,E9pool
1409,11.0,S,6.0,spring,2.0,2,string,5295.0,R.pool350,E9pool
1410,11.0,S,6.0,string,3.0,3,,6420.0,R.pool350,E9pool
1411,11.0,S,6.0,wing,4.0,4,spring,5587.0,R.pool350,E9pool
1412,11.0,D,7.0,rice,0.0,0,rice,5564.0,R.pool350,E9pool
1413,11.0,D,7.0,cat,1.0,1,cat,5374.0,R.pool350,E9pool
1414,11.0,D,7.0,trash,2.0,2,trash,6008.0,R.pool350,E9pool
1415,11.0,S,8.0,bread,0.0,0,head,6014.0,R.pool350,E9pool
1416,11.0,S,8.0,head,1.0,1,,5414.0,R.pool350,E9pool
1417,11.0,S,8.0,thread,2.0,2,thread,6463.0,R.pool350,E9pool
1418,11.0,S,8.0,bed,3.0,3,bed,6516.0,R.pool350,E9pool
1419,11.0,D,9.0,coin,0.0,0,coin,5826.0,R.pool350,E9pool
1420,11.0,D,9.0,film,1.0,1,,5690.0,R.pool350,E9pool
1421,11.0,D,9.0,leaf,2.0,2,,5814.0,R.pool350,E9pool
1422,11.0,D,9.0,train,3.0,3,,5807.0,R.pool350,E9pool
1423,11.0,D,9.0,map,4.0,4,,5535.0,R.pool350,E9pool
1424,11.0,D,9.0,art,5.0,5,art,6698.0,R.pool350,E9pool
1425,11.0,S,10.0,doll,0.0,0,doll,5984.0,R.pool350,E9pool
1426,11.0,S,10.0,ball,1.0,1,,6329.0,R.pool350,E9pool
1427,11.0,S,10.0,shawl,2.0,2,shawl,6196.0,R.pool350,E9pool
1428,11.0,S,10.0,hall,3.0,3,brawl,6076.0,R.pool350,E9pool
1429,11.0,S,10.0,brawl,4.0,4,,6665.0,R.pool350,E9pool
1430,11.0,S,10.0,wall,5.0,,,6303.0,R.pool350,E9pool
1431,11.0,D,11.0,path,0.0,0,path,5418.0,R.pool350,E9pool
1432,11.0,D,11.0,nest,1.0,1,nest,5914.0,R.pool350,E9pool
1433,11.0,D,11.0,square,2.0,2,,4838.0,R.pool350,E9pool
1434,11.0,D,11.0,wood,3.0,3,,5893.0,R.pool350,E9pool
1435,11.0,D,11.0,beach,4.0,4,beach,5930.0,R.pool350,E9pool
1436,11.0,S,12.0,deer,0.0,0,deer,6336.0,R.pool350,E9pool
1437,11.0,S,12.0,sphere,1.0,1,sphere,6082.0,R.pool350,E9pool
1438,11.0,S,12.0,ear,2.0,2,,6495.0,R.pool350,E9pool
1439,11.0,S,12.0,tear,3.0,3,tear,5843.0,R.pool350,E9pool
1440,11.0,S,13.0,boot,0.0,0,flute,6386.0,R.pool350,E9pool
1441,11.0,S,13.0,suit,1.0,1,,5530.0,R.pool350,E9pool
1442,11.0,S,13.0,flute,2.0,2,brute,5182.0,R.pool350,E9pool
1443,11.0,S,13.0,loot,3.0,,,6969.0,R.pool350,E9pool
1444,11.0,S,13.0,root,4.0,,,4960.0,R.pool350,E9pool
1445,11.0,S,13.0,brute,5.0,,,5259.0,R.pool350,E9pool
1446,11.0,D,14.0,toy,0.0,0,toy,6324.0,R.pool350,E9pool
1447,11.0,D,14.0,wreck,1.0,1,wreck,6014.0,R.pool350,E9pool
1448,11.0,D,14.0,frown,2.0,2,frown,5125.0,R.pool350,E9pool
1449,11.0,D,15.0,ant,0.0,0,ant,5447.0,R.pool350,E9pool
1450,11.0,D,15.0,air,1.0,1,air,6062.0,R.pool350,E9pool
1451,11.0,D,15.0,ink,2.0,2,,5331.0,R.pool350,E9pool
1452,11.0,D,15.0,cloud,3.0,3,,5471.0,R.pool350,E9pool
1453,11.0,D,15.0,seat,4.0,4,cloud,5253.0,R.pool350,E9pool
1454,11.0,D,15.0,breath,5.0,5,breath,5132.0,R.pool350,E9pool
1455,11.0,D,16.0,chest,0.0,0,chest,5832.0,R.pool350,E9pool
1456,11.0,D,16.0,lane,1.0,1,lane,4696.0,R.pool350,E9pool
1457,11.0,D,16.0,hair,2.0,2,hair,5149.0,R.pool350,E9pool
1458,11.0,D,16.0,crown,3.0,3,smart,4920.0,R.pool350,E9pool
1459,11.0,S,17.0,blouse,0.0,0,blouse,5096.0,R.pool350,E9pool
1460,11.0,S,17.0,house,1.0,1,house,4973.0,R.pool350,E9pool
1461,11.0,S,17.0,mouse,2.0,2,mouse,5144.0,R.pool350,E9pool
1462,11.0,D,18.0,spice,0.0,0,spice,5138.0,R.pool350,E9pool
1463,11.0,D,18.0,heat,1.0,1,heat,5533.0,R.pool350,E9pool
1464,11.0,D,18.0,shape,2.0,2,space,5136.0,R.pool350,E9pool
1465,11.0,D,18.0,pear,3.0,3,,6708.0,R.pool350,E9pool
1466,11.0,D,18.0,guest,4.0,4,guest,5008.0,R.pool350,E9pool
1467,11.0,S,19.0,jar,0.0,0,pie,5766.0,R.pool350,E9pool
1468,11.0,S,19.0,bar,1.0,1,bar,4919.0,R.pool350,E9pool
1469,11.0,S,19.0,car,2.0,2,car,6309.0,R.pool350,E9pool
1470,11.0,S,19.0,scar,3.0,3,,6879.0,R.pool350,E9pool
1471,11.0,S,19.0,star,4.0,4,star,4892.0,R.pool350,E9pool
1472,11.0,S,20.0,band,0.0,0,band,6436.0,R.pool350,E9pool
1473,11.0,S,20.0,land,1.0,1,land,6122.0,R.pool350,E9pool
1474,11.0,S,20.0,stand,2.0,2,stand,5405.0,R.pool350,E9pool
1475,11.0,S,20.0,hand,3.0,3,hand,5574.0,R.pool350,E9pool
1476,11.0,S,21.0,bone,0.0,0,bone,5314.0,R.pool350,E9pool
1477,11.0,S,21.0,phone,1.0,1,phone,5653.0,R.pool350,E9pool
1478,11.0,S,21.0,stone,2.0,2,stone,5443.0,R.pool350,E9pool
1479,11.0,D,22.0,beard,0.0,0,beard,4986.0,R.pool350,E9pool
1480,11.0,D,22.0,hill,1.0,1,hill,5475.0,R.pool350,E9pool
1481,11.0,D,22.0,dirt,2.0,2,dirt,5449.0,R.pool350,E9pool
1482,11.0,D,22.0,card,3.0,3,soap,6015.0,R.pool350,E9pool
1483,11.0,D,22.0,line,4.0,4,line,6431.0,R.pool350,E9pool
1484,11.0,D,23.0,deck,0.0,0,,6649.0,R.pool350,E9pool
1485,11.0,D,23.0,slice,1.0,1,slice,5831.0,R.pool350,E9pool
1486,11.0,D,23.0,rat,2.0,2,rat,5678.0,R.pool350,E9pool
1487,11.0,D,24.0,shell,0.0,0,shell,6563.0,R.pool350,E9pool
1488,11.0,D,24.0,tree,1.0,1,tree,6229.0,R.pool350,E9pool
1489,11.0,D,24.0,bowl,2.0,2,bowl,5773.0,R.pool350,E9pool
1490,11.0,D,24.0,broom,3.0,3,broom,6718.0,R.pool350,E9pool
1491,11.0,D,24.0,test,4.0,4,test,6840.0,R.pool350,E9pool
1492,11.0,D,24.0,ground,5.0,5,ground,5862.0,R.pool350,E9pool
1493,11.0,S,25.0,mail,0.0,0,mail,6481.0,R.pool350,E9pool
1494,11.0,S,25.0,sail,1.0,1,sail,5574.0,R.pool350,E9pool
1495,11.0,S,25.0,trail,2.0,2,trail,5703.0,R.pool350,E9pool
1496,11.0,S,25.0,wail,3.0,3,,6667.0,R.pool350,E9pool
1497,11.0,S,25.0,tail,4.0,4,,5752.0,R.pool350,E9pool
1498,11.0,S,25.0,jail,5.0,5,,6234.0,R.pool350,E9pool
1499,11.0,D,26.0,mare,0.0,0,mare,6125.0,R.pool350,E9pool
1500,11.0,D,26.0,bell,1.0,1,,6775.0,R.pool350,E9pool
1501,11.0,D,26.0,brain,2.0,2,brain,6576.0,R.pool350,E9pool
1502,11.0,D,26.0,beef,3.0,3,beef,6568.0,R.pool350,E9pool
1503,11.0,S,27.0,pie,0.0,0,,5349.0,R.pool350,E9pool
1504,11.0,S,27.0,fly,1.0,1,fly,6232.0,R.pool350,E9pool
1505,11.0,S,27.0,tie,2.0,2,tie,5735.0,R.pool350,E9pool
1506,11.0,S,27.0,sky,3.0,3,,6970.0,R.pool350,E9pool
1507,11.0,S,27.0,eye,4.0,4,eye,6482.0,R.pool350,E9pool
1508,12.0,P,0.0,farm,0.0,0,farm,6968.0,R.pool350,E9pool
1509,12.0,P,0.0,arm,1.0,1,arm,6233.0,R.pool350,E9pool
1510,12.0,P,1.0,earth,0.0,0,earth,5336.0,R.pool350,E9pool
1511,12.0,P,1.0,peach,1.0,1,peach,6107.0,R.pool350,E9pool
1512,12.0,P,2.0,hood,0.0,0,hood,5687.0,R.pool350,E9pool
1513,12.0,P,2.0,wood,1.0,1,wood,5539.0,R.pool350,E9pool
1514,12.0,P,3.0,bath,0.0,0,bath,5411.0,R.pool350,E9pool
1515,12.0,P,3.0,dawn,1.0,1,dawn,5947.0,R.pool350,E9pool
1516,12.0,S,4.0,blouse,0.0,0,blouse,6007.0,R.pool350,E9pool
1517,12.0,S,4.0,house,1.0,1,house,6086.0,R.pool350,E9pool
1518,12.0,S,4.0,mouse,2.0,2,mouse,6458.0,R.pool350,E9pool
1519,12.0,D,5.0,neck,0.0,0,neck,4496.0,R.pool350,E9pool
1520,12.0,D,5.0,town,1.0,1,,5671.0,R.pool350,E9pool
1521,12.0,D,5.0,hat,2.0,2,house,5955.0,R.pool350,E9pool
1522,12.0,D,5.0,street,3.0,3,street,6206.0,R.pool350,E9pool
1523,12.0,S,6.0,bread,0.0,0,bread,5634.0,R.pool350,E9pool
1524,12.0,S,6.0,head,1.0,1,head,6050.0,R.pool350,E9pool
1525,12.0,S,6.0,thread,2.0,2,thread,6800.0,R.pool350,E9pool
1526,12.0,S,6.0,bed,3.0,3,bed,6528.0,R.pool350,E9pool
1527,12.0,S,7.0,king,0.0,0,king,4967.0,R.pool350,E9pool
1528,12.0,S,7.0,ring,1.0,1,ring,6441.0,R.pool350,E9pool
1529,12.0,S,7.0,spring,2.0,2,sing,4944.0,R.pool350,E9pool
1530,12.0,S,7.0,string,3.0,3,string,7338.0,R.pool350,E9pool
1531,12.0,S,7.0,wing,4.0,4,wing,7101.0,R.pool350,E9pool
1532,12.0,D,8.0,coin,0.0,0,coin,5970.0,R.pool350,E9pool
1533,12.0,D,8.0,film,1.0,1,head,6099.0,R.pool350,E9pool
1534,12.0,D,8.0,leaf,2.0,2,,7520.0,R.pool350,E9pool
1535,12.0,D,8.0,train,3.0,3,,6393.0,R.pool350,E9pool
1536,12.0,D,8.0,map,4.0,4,leaf,5865.0,R.pool350,E9pool
1537,12.0,D,8.0,art,5.0,,,5472.0,R.pool350,E9pool
1538,12.0,D,9.0,path,0.0,0,path,5175.0,R.pool350,E9pool
1539,12.0,D,9.0,nest,1.0,1,,5570.0,R.pool350,E9pool
1540,12.0,D,9.0,square,2.0,2,wood,7011.0,R.pool350,E9pool
1541,12.0,D,9.0,wood,3.0,3,beach,6362.0,R.pool350,E9pool
1542,12.0,D,9.0,beach,4.0,,,6051.0,R.pool350,E9pool
1543,12.0,S,10.0,doll,0.0,0,doll,5194.0,R.pool350,E9pool
1544,12.0,S,10.0,ball,1.0,1,ball,6316.0,R.pool350,E9pool
1545,12.0,S,10.0,shawl,2.0,2,brawl,5320.0,R.pool350,E9pool
1546,12.0,S,10.0,hall,3.0,3,shawl,8892.0,R.pool350,E9pool
1547,12.0,S,10.0,brawl,4.0,4,wall,5981.0,R.pool350,E9pool
1548,12.0,S,10.0,wall,5.0,,,7935.0,R.pool350,E9pool
1549,12.0,D,11.0,rice,0.0,0,rice,5001.0,R.pool350,E9pool
1550,12.0,D,11.0,cat,1.0,1,cat,5257.0,R.pool350,E9pool
1551,12.0,D,11.0,trash,2.0,2,trash,6823.0,R.pool350,E9pool
1552,12.0,S,12.0,jar,0.0,0,jar,5261.0,R.pool350,E9pool
1553,12.0,S,12.0,bar,1.0,1,bar,5757.0,R.pool350,E9pool
1554,12.0,S,12.0,car,2.0,2,car,5759.0,R.pool350,E9pool
1555,12.0,S,12.0,scar,3.0,3,star,6761.0,R.pool350,E9pool
1556,12.0,S,12.0,star,4.0,,,8482.0,R.pool350,E9pool
1557,12.0,S,13.0,deer,0.0,0,deer,5023.0,R.pool350,E9pool
1558,12.0,S,13.0,sphere,1.0,1,sphere,5152.0,R.pool350,E9pool
1559,12.0,S,13.0,ear,2.0,2,ear,7017.0,R.pool350,E9pool
1560,12.0,S,13.0,tear,3.0,3,tear,5968.0,R.pool350,E9pool
1561,12.0,D,14.0,ant,0.0,0,ant,5468.0,R.pool350,E9pool
1562,12.0,D,14.0,air,1.0,1,air,4595.0,R.pool350,E9pool
1563,12.0,D,14.0,ink,2.0,2,ink,6445.0,R.pool350,E9pool
1564,12.0,D,14.0,cloud,3.0,3,cloud,5723.0,R.pool350,E9pool
1565,12.0,D,14.0,seat,4.0,4,seat,5693.0,R.pool350,E9pool
1566,12.0,D,14.0,breath,5.0,5,breath,5682.0,R.pool350,E9pool
1567,12.0,S,15.0,boot,0.0,0,boot,5611.0,R.pool350,E9pool
1568,12.0,S,15.0,suit,1.0,1,suit,5236.0,R.pool350,E9pool
1569,12.0,S,15.0,flute,2.0,2,flute,5651.0,R.pool350,E9pool
1570,12.0,S,15.0,loot,3.0,3,loot,7026.0,R.pool350,E9pool
1571,12.0,S,15.0,root,4.0,4,brute,8031.0,R.pool350,E9pool
1572,12.0,S,15.0,brute,5.0,5,root,6749.0,R.pool350,E9pool
1573,12.0,D,16.0,chest,0.0,0,chest,4764.0,R.pool350,E9pool
1574,12.0,D,16.0,lane,1.0,1,lane,4545.0,R.pool350,E9pool
1575,12.0,D,16.0,hair,2.0,2,hair,6237.0,R.pool350,E9pool
1576,12.0,D,16.0,crown,3.0,3,crown,5946.0,R.pool350,E9pool
1577,12.0,D,17.0,spice,0.0,0,rice,4965.0,R.pool350,E9pool
1578,12.0,D,17.0,heat,1.0,1,heat,5663.0,R.pool350,E9pool
1579,12.0,D,17.0,shape,2.0,2,pear,5589.0,R.pool350,E9pool
1580,12.0,D,17.0,pear,3.0,3,shape,7335.0,R.pool350,E9pool
1581,12.0,D,17.0,guest,4.0,4,guest,5760.0,R.pool350,E9pool
1582,12.0,D,18.0,toy,0.0,0,toy,4482.0,R.pool350,E9pool
1583,12.0,D,18.0,wreck,1.0,1,wreck,6856.0,R.pool350,E9pool
1584,12.0,D,18.0,frown,2.0,2,frown,5246.0,R.pool350,E9pool
1585,12.0,S,19.0,cream,0.0,0,cream,6033.0,R.pool350,E9pool
1586,12.0,S,19.0,team,1.0,1,team,5224.0,R.pool350,E9pool
1587,12.0,S,19.0,steam,2.0,2,steam,6903.0,R.pool350,E9pool
1588,12.0,S,20.0,mail,0.0,0,mail,4805.0,R.pool350,E9pool
1589,12.0,S,20.0,sail,1.0,1,sail,6766.0,R.pool350,E9pool
1590,12.0,S,20.0,trail,2.0,2,trail,5375.0,R.pool350,E9pool
1591,12.0,S,20.0,wail,3.0,3,wail,8137.0,R.pool350,E9pool
1592,12.0,S,20.0,tail,4.0,4,,8538.0,R.pool350,E9pool
1593,12.0,S,20.0,jail,5.0,,,5538.0,R.pool350,E9pool
1594,12.0,D,21.0,shell,0.0,0,shell,5045.0,R.pool350,E9pool
1595,12.0,D,21.0,tree,1.0,1,tree,7236.0,R.pool350,E9pool
1596,12.0,D,21.0,bowl,2.0,2,bowl,5962.0,R.pool350,E9pool
1597,12.0,D,21.0,broom,3.0,3,broom,4955.0,R.pool350,E9pool
1598,12.0,D,21.0,test,4.0,4,test,6446.0,R.pool350,E9pool
1599,12.0,D,21.0,ground,5.0,5,ground,7276.0,R.pool350,E9pool
1600,12.0,S,22.0,band,0.0,0,band,4811.0,R.pool350,E9pool
1601,12.0,S,22.0,land,1.0,1,land,6924.0,R.pool350,E9pool
1602,12.0,S,22.0,stand,2.0,2,stand,6510.0,R.pool350,E9pool
1603,12.0,S,22.0,hand,3.0,3,hand,6786.0,R.pool350,E9pool
1604,12.0,D,23.0,mare,0.0,0,mare,5502.0,R.pool350,E9pool
1605,12.0,D,23.0,bell,1.0,1,,6388.0,R.pool350,E9pool
1606,12.0,D,23.0,brain,2.0,2,brain,5899.0,R.pool350,E9pool
1607,12.0,D,23.0,beef,3.0,3,flour,6263.0,R.pool350,E9pool
1608,12.0,D,24.0,deck,0.0,0,deck,5351.0,R.pool350,E9pool
1609,12.0,D,24.0,slice,1.0,1,slice,5042.0,R.pool350,E9pool
1610,12.0,D,24.0,rat,2.0,2,rat,7329.0,R.pool350,E9pool
1611,12.0,S,25.0,bone,0.0,0,bone,4991.0,R.pool350,E9pool
1612,12.0,S,25.0,phone,1.0,1,phone,6065.0,R.pool350,E9pool
1613,12.0,S,25.0,stone,2.0,2,stone,5303.0,R.pool350,E9pool
1614,12.0,D,26.0,beard,0.0,0,bear,4872.0,R.pool350,E9pool
1615,12.0,D,26.0,hill,1.0,1,hill,6605.0,R.pool350,E9pool
1616,12.0,D,26.0,dirt,2.0,2,dirt,5517.0,R.pool350,E9pool
1617,12.0,D,26.0,card,3.0,3,card,4521.0,R.pool350,E9pool
1618,12.0,D,26.0,line,4.0,4,line,7766.0,R.pool350,E9pool
1619,12.0,S,27.0,pie,0.0,0,pie,5305.0,R.pool350,E9pool
1620,12.0,S,27.0,fly,1.0,1,fly,6390.0,R.pool350,E9pool
1621,12.0,S,27.0,tie,2.0,2,tie,5559.0,R.pool350,E9pool
1622,12.0,S,27.0,sky,3.0,3,sky,6129.0,R.pool350,E9pool
1623,12.0,S,27.0,eye,4.0,4,eye,6883.0,R.pool350,E9pool
1624,1.0,P,3.0,,,2,,,R.pool350,E9pool
1625,10.0,P,1.0,,,2,,,R.pool350,E9pool
1626,14.0,P,0.0,,,2,,,R.pool350,E9pool
1627,14.0,P,3.0,,,2,,,R.pool350,E9pool
1628,2.0,P,0.0,,,2,,,R.pool350,E9pool
1629,2.0,P,1.0,,,2,,,R.pool350,E9pool
1630,2.0,P,3.0,,,2,,,R.pool350,E9pool
1631,3.0,P,0.0,,,2,,,R.pool350,E9pool
1632,3.0,P,1.0,,,2,,,R.pool350,E9pool
1633,3.0,P,2.0,,,2,,,R.pool350,E9pool
1634,4.0,P,0.0,,,2,,,R.pool350,E9pool
1635,5.0,P,0.0,,,2,,,R.pool350,E9pool
1636,5.0,P,1.0,,,2,,,R.pool350,E9pool
1637,5.0,P,2.0,,,2,,,R.pool350,E9pool
1638,5.0,P,3.0,,,2,,,R.pool350,E9pool
1639,8.0,P,0.0,,,2,,,R.pool350,E9pool
1640,9.0,P,0.0,,,2,,,R.pool350,E9pool
1641,9.0,P,1.0,,,2,,,R.pool350,E9pool
1642,11.0,P,0.0,,,2,,,R.pool350,E9pool
1643,10.0,S,4.0,,,3,,,R.pool350,E9pool
1644,14.0,S,8.0,,,3,,,R.pool350,E9pool
1645,2.0,D,7.0,,,3,,,R.pool350,E9pool
1646,2.0,S,9.0,,,3,,,R.pool350,E9pool
1647,2.0,S,15.0,,,3,,,R.pool350,E9pool
1648,2.0,S,25.0,,,3,,,R.pool350,E9pool
1649,3.0,D,19.0,,,3,,,R.pool350,E9pool
1650,3.0,D,20.0,,,3,,,R.pool350,E9pool
1651,3.0,S,22.0,,,3,,,R.pool350,E9pool
1652,5.0,D,6.0,,,3,,,R.pool350,E9pool
1653,5.0,S,10.0,,,3,,,R.pool350,E9pool
1654,5.0,D,13.0,,,3,,,R.pool350,E9pool
1655,5.0,S,19.0,,,3,,,R.pool350,E9pool
1656,5.0,S,24.0,,,3,,,R.pool350,E9pool
1657,5.0,D,26.0,,,3,,,R.pool350,E9pool
1658,12.0,D,11.0,,,3,,,R.pool350,E9pool
1659,14.0,S,5.0,,,4,,,R.pool350,E9pool
1660,2.0,D,4.0,,,4,,,R.pool350,E9pool
1661,2.0,S,12.0,,,4,,,R.pool350,E9pool
1662,2.0,S,23.0,,,4,,,R.pool350,E9pool
1663,3.0,S,14.0,,,4,,,R.pool350,E9pool
1664,5.0,D,4.0,,,4,,,R.pool350,E9pool
1665,5.0,S,23.0,,,4,,,R.pool350,E9pool
1666,8.0,D,6.0,,,4,,,R.pool350,E9pool
1667,8.0,S,11.0,,,4,,,R.pool350,E9pool
1668,12.0,D,5.0,,,4,,,R.pool350,E9pool
1669,13.0,S,15.0,,,5,,,R.pool350,E9pool
1670,5.0,S,8.0,,,5,,,R.pool350,E9pool
1671,5.0,S,27.0,,,5,,,R.pool350,E9pool
1672,8.0,S,4.0,,,5,,,R.pool350,E9pool
1673,8.0,S,13.0,,,5,,,R.pool350,E9pool
1674,12.0,S,7.0,,,5,,,R.pool350,E9pool
1675,4.0,D,7.0,,,6,,,R.pool350,E9pool
1676,4.0,D,7.0,,,7,,,R.pool350,E9pool
1677,4.0,S,13.0,,,6,,,R.pool350,E9pool
1678,5.0,S,5.0,,,6,,,R.pool350,E9pool
1679,5.0,S,14.0,,,6,,,R.pool350,E9pool
1680,5.0,S,25.0,,,6,,,R.pool350,E9pool
1681,11.0,S,25.0,,,6,jail,,R.pool350,E9pool
