,Subject,trialtype,trialnum,inpos,TBR,outpos,resp,dist_RT,task,folder
0,1.0,P,0.0,0.0,earth,0,earth,,R.scramb,E7
1,1.0,P,0.0,1.0,peach,1,peach,,R.scramb,E7
2,1.0,P,1.0,0.0,bath,0,bath,,R.scramb,E7
3,1.0,P,1.0,1.0,dawn,1,dawn,,R.scramb,E7
4,1.0,P,2.0,0.0,farm,0,farm,,R.scramb,E7
5,1.0,P,2.0,1.0,arm,1,arm,,R.scramb,E7
6,1.0,P,3.0,0.0,hood,0,hood,,R.scramb,E7
7,1.0,P,3.0,1.0,wood,1,wood,,R.scramb,E7
8,1.0,D,4.0,0.0,neck,0,neck,5638.0,R.scramb,E7
9,1.0,D,4.0,1.0,town,1,town,5624.0,R.scramb,E7
10,1.0,D,4.0,2.0,hat,2,hat,7232.0,R.scramb,E7
11,1.0,D,4.0,3.0,street,3,street,8283.0,R.scramb,E7
12,1.0,D,5.0,0.0,mare,0,mare,4928.0,R.scramb,E7
13,1.0,D,5.0,1.0,bell,1,,4846.0,R.scramb,E7
14,1.0,D,5.0,2.0,brain,2,brain,6347.0,R.scramb,E7
15,1.0,D,5.0,3.0,beef,3,beef,7814.0,R.scramb,E7
16,1.0,D,6.0,0.0,shell,0,,5259.0,R.scramb,E7
17,1.0,D,6.0,1.0,tree,1,brain,6067.0,R.scramb,E7
18,1.0,D,6.0,2.0,bowl,2,tree,7086.0,R.scramb,E7
19,1.0,D,6.0,3.0,broom,3,shell,7035.0,R.scramb,E7
20,1.0,D,6.0,4.0,test,,,5398.0,R.scramb,E7
21,1.0,D,6.0,5.0,ground,,,6483.0,R.scramb,E7
22,1.0,D,7.0,0.0,ant,0,ant,5409.0,R.scramb,E7
23,1.0,D,7.0,1.0,air,1,air,5014.0,R.scramb,E7
24,1.0,D,7.0,2.0,ink,2,,5854.0,R.scramb,E7
25,1.0,D,7.0,3.0,cloud,3,sheet,6038.0,R.scramb,E7
26,1.0,D,7.0,4.0,seat,4,breath,5561.0,R.scramb,E7
27,1.0,D,7.0,5.0,breath,,,5790.0,R.scramb,E7
28,1.0,D,8.0,0.0,deck,0,deck,5033.0,R.scramb,E7
29,1.0,D,8.0,1.0,slice,1,slice,4540.0,R.scramb,E7
30,1.0,D,8.0,2.0,rat,2,rat,6052.0,R.scramb,E7
31,1.0,D,9.0,0.0,toy,0,,5361.0,R.scramb,E7
32,1.0,D,9.0,1.0,wreck,1,wreck,6046.0,R.scramb,E7
33,1.0,D,9.0,2.0,frown,2,frown,7156.0,R.scramb,E7
34,1.0,D,10.0,0.0,spice,0,,4606.0,R.scramb,E7
35,1.0,D,10.0,1.0,heat,1,share,4812.0,R.scramb,E7
36,1.0,D,10.0,2.0,shape,2,,6172.0,R.scramb,E7
37,1.0,D,10.0,3.0,pear,3,guest,6332.0,R.scramb,E7
38,1.0,D,10.0,4.0,guest,,,6921.0,R.scramb,E7
39,1.0,D,11.0,0.0,coin,0,,6433.0,R.scramb,E7
40,1.0,D,11.0,1.0,film,1,coin,4788.0,R.scramb,E7
41,1.0,D,11.0,2.0,leaf,2,,6207.0,R.scramb,E7
42,1.0,D,11.0,3.0,train,3,art,7156.0,R.scramb,E7
43,1.0,D,11.0,4.0,map,,,7159.0,R.scramb,E7
44,1.0,D,11.0,5.0,art,,,7044.0,R.scramb,E7
45,1.0,D,12.0,0.0,rice,0,rice,6287.0,R.scramb,E7
46,1.0,D,12.0,1.0,cat,1,cat,5588.0,R.scramb,E7
47,1.0,D,12.0,2.0,trash,2,trash,4959.0,R.scramb,E7
48,1.0,D,13.0,0.0,path,0,raft,4324.0,R.scramb,E7
49,1.0,D,13.0,1.0,nest,1,nest,5361.0,R.scramb,E7
50,1.0,D,13.0,2.0,square,2,wood,5143.0,R.scramb,E7
51,1.0,D,13.0,3.0,wood,3,square,11031.0,R.scramb,E7
52,1.0,D,13.0,4.0,beach,4,beach,7337.0,R.scramb,E7
53,1.0,D,14.0,0.0,chest,0,,4820.0,R.scramb,E7
54,1.0,D,14.0,1.0,lane,1,lane,6780.0,R.scramb,E7
55,1.0,D,14.0,2.0,hair,2,hair,6956.0,R.scramb,E7
56,1.0,D,14.0,3.0,crown,3,crown,5727.0,R.scramb,E7
57,1.0,D,15.0,0.0,beard,0,beard,5703.0,R.scramb,E7
58,1.0,D,15.0,1.0,hill,1,hill,5183.0,R.scramb,E7
59,1.0,D,15.0,2.0,dirt,2,dirt,6111.0,R.scramb,E7
60,1.0,D,15.0,3.0,card,3,line,8242.0,R.scramb,E7
61,1.0,D,15.0,4.0,line,,,8159.0,R.scramb,E7
62,1.0,S,16.0,0.0,doll,0,doll,5108.0,R.scramb,E7
63,1.0,S,16.0,1.0,ball,1,ball,5679.0,R.scramb,E7
64,1.0,S,16.0,2.0,shawl,2,shawl,4684.0,R.scramb,E7
65,1.0,S,16.0,3.0,hall,3,hall,8026.0,R.scramb,E7
66,1.0,S,16.0,4.0,brawl,4,brawl,9037.0,R.scramb,E7
67,1.0,S,16.0,5.0,wall,,,5183.0,R.scramb,E7
68,1.0,S,17.0,0.0,cream,0,cream,5159.0,R.scramb,E7
69,1.0,S,17.0,1.0,team,1,team,4901.0,R.scramb,E7
70,1.0,S,17.0,2.0,steam,2,steam,7165.0,R.scramb,E7
71,1.0,S,18.0,0.0,deer,0,deer,4890.0,R.scramb,E7
72,1.0,S,18.0,1.0,sphere,1,fear,5367.0,R.scramb,E7
73,1.0,S,18.0,2.0,ear,2,ear,5045.0,R.scramb,E7
74,1.0,S,18.0,3.0,tear,3,tear,6986.0,R.scramb,E7
75,1.0,S,19.0,0.0,king,0,king,4669.0,R.scramb,E7
76,1.0,S,19.0,1.0,ring,1,ring,6175.0,R.scramb,E7
77,1.0,S,19.0,2.0,spring,2,,5936.0,R.scramb,E7
78,1.0,S,19.0,3.0,string,3,string,5016.0,R.scramb,E7
79,1.0,S,19.0,4.0,wing,4,,8944.0,R.scramb,E7
80,1.0,S,20.0,0.0,boot,0,boot,6405.0,R.scramb,E7
81,1.0,S,20.0,1.0,suit,1,suit,6138.0,R.scramb,E7
82,1.0,S,20.0,2.0,flute,2,flute,5954.0,R.scramb,E7
83,1.0,S,20.0,3.0,loot,3,loot,6605.0,R.scramb,E7
84,1.0,S,20.0,4.0,root,,,9386.0,R.scramb,E7
85,1.0,S,20.0,5.0,brute,,,6445.0,R.scramb,E7
86,1.0,S,21.0,0.0,bread,0,bread,4248.0,R.scramb,E7
87,1.0,S,21.0,1.0,head,1,thread,4541.0,R.scramb,E7
88,1.0,S,21.0,2.0,thread,2,bed,6117.0,R.scramb,E7
89,1.0,S,21.0,3.0,bed,,,5432.0,R.scramb,E7
90,1.0,S,22.0,0.0,mail,0,trail,7208.0,R.scramb,E7
91,1.0,S,22.0,1.0,sail,1,rail,7613.0,R.scramb,E7
92,1.0,S,22.0,2.0,trail,2,tail,5141.0,R.scramb,E7
93,1.0,S,22.0,3.0,wail,,,6197.0,R.scramb,E7
94,1.0,S,22.0,4.0,tail,,,5864.0,R.scramb,E7
95,1.0,S,22.0,5.0,jail,,,6592.0,R.scramb,E7
96,1.0,S,23.0,0.0,bone,0,bone,4848.0,R.scramb,E7
97,1.0,S,23.0,1.0,phone,1,phone,5285.0,R.scramb,E7
98,1.0,S,23.0,2.0,stone,2,stone,6379.0,R.scramb,E7
99,1.0,S,24.0,0.0,band,0,land,4134.0,R.scramb,E7
100,1.0,S,24.0,1.0,land,1,band,5566.0,R.scramb,E7
101,1.0,S,24.0,2.0,stand,2,stand,4987.0,R.scramb,E7
102,1.0,S,24.0,3.0,hand,3,hand,6686.0,R.scramb,E7
103,1.0,S,25.0,0.0,jar,0,jar,5219.0,R.scramb,E7
104,1.0,S,25.0,1.0,bar,1,bar,4395.0,R.scramb,E7
105,1.0,S,25.0,2.0,car,2,scar,4878.0,R.scramb,E7
106,1.0,S,25.0,3.0,scar,3,star,6960.0,R.scramb,E7
107,1.0,S,25.0,4.0,star,,,7790.0,R.scramb,E7
108,1.0,S,26.0,0.0,pie,0,pie,4912.0,R.scramb,E7
109,1.0,S,26.0,1.0,fly,1,fly,8587.0,R.scramb,E7
110,1.0,S,26.0,2.0,tie,2,tie,6118.0,R.scramb,E7
111,1.0,S,26.0,3.0,sky,3,sky,7000.0,R.scramb,E7
112,1.0,S,26.0,4.0,eye,4,eye,7206.0,R.scramb,E7
113,1.0,S,27.0,0.0,blouse,0,blouse,4596.0,R.scramb,E7
114,1.0,S,27.0,1.0,house,1,house,4526.0,R.scramb,E7
115,1.0,S,27.0,2.0,mouse,2,mouse,4787.0,R.scramb,E7
116,54.0,P,0.0,0.0,bath,0,bath,,R.scramb,E7
117,54.0,P,0.0,1.0,dawn,1,dawn,,R.scramb,E7
118,54.0,P,1.0,0.0,farm,0,farm,,R.scramb,E7
119,54.0,P,1.0,1.0,arm,1,arm,,R.scramb,E7
120,54.0,P,2.0,0.0,hood,0,dirt,,R.scramb,E7
121,54.0,P,2.0,1.0,wood,1,wood,,R.scramb,E7
122,54.0,P,3.0,0.0,earth,0,earth,,R.scramb,E7
123,54.0,P,3.0,1.0,peach,1,peach,,R.scramb,E7
124,54.0,S,4.0,0.0,king,0,king,4333.0,R.scramb,E7
125,54.0,S,4.0,1.0,ring,1,ring,5810.0,R.scramb,E7
126,54.0,S,4.0,2.0,spring,2,spring,5555.0,R.scramb,E7
127,54.0,S,4.0,3.0,string,3,string,4485.0,R.scramb,E7
128,54.0,S,4.0,4.0,wing,4,wing,6587.0,R.scramb,E7
129,54.0,S,5.0,0.0,blouse,0,blouse,4593.0,R.scramb,E7
130,54.0,S,5.0,1.0,house,1,house,4171.0,R.scramb,E7
131,54.0,S,5.0,2.0,mouse,2,mouse,5037.0,R.scramb,E7
132,54.0,S,6.0,0.0,cream,0,cream,4001.0,R.scramb,E7
133,54.0,S,6.0,1.0,team,1,team,3884.0,R.scramb,E7
134,54.0,S,6.0,2.0,steam,2,steam,5610.0,R.scramb,E7
135,54.0,S,7.0,0.0,jar,0,jar,4261.0,R.scramb,E7
136,54.0,S,7.0,1.0,bar,1,bar,3645.0,R.scramb,E7
137,54.0,S,7.0,2.0,car,2,car,4623.0,R.scramb,E7
138,54.0,S,7.0,3.0,scar,3,star,8702.0,R.scramb,E7
139,54.0,S,7.0,4.0,star,4,,6505.0,R.scramb,E7
140,54.0,S,8.0,0.0,band,0,band,4897.0,R.scramb,E7
141,54.0,S,8.0,1.0,land,1,land,5421.0,R.scramb,E7
142,54.0,S,8.0,2.0,stand,2,stand,6077.0,R.scramb,E7
143,54.0,S,8.0,3.0,hand,3,hand,4507.0,R.scramb,E7
144,54.0,S,9.0,0.0,mail,0,mail,6054.0,R.scramb,E7
145,54.0,S,9.0,1.0,sail,1,sail,7061.0,R.scramb,E7
146,54.0,S,9.0,2.0,trail,2,trail,5328.0,R.scramb,E7
147,54.0,S,9.0,3.0,wail,3,tail,5029.0,R.scramb,E7
148,54.0,S,9.0,4.0,tail,4,wail,5525.0,R.scramb,E7
149,54.0,S,9.0,5.0,jail,5,,5960.0,R.scramb,E7
150,54.0,S,10.0,0.0,bread,0,bread,3865.0,R.scramb,E7
151,54.0,S,10.0,1.0,head,1,head,4706.0,R.scramb,E7
152,54.0,S,10.0,2.0,thread,2,thread,5424.0,R.scramb,E7
153,54.0,S,10.0,3.0,bed,3,bed,5351.0,R.scramb,E7
154,54.0,S,11.0,0.0,boot,0,boot,4954.0,R.scramb,E7
155,54.0,S,11.0,1.0,suit,1,suit,5940.0,R.scramb,E7
156,54.0,S,11.0,2.0,flute,2,flute,5575.0,R.scramb,E7
157,54.0,S,11.0,3.0,loot,3,loot,5688.0,R.scramb,E7
158,54.0,S,11.0,4.0,root,4,root,6782.0,R.scramb,E7
159,54.0,S,11.0,5.0,brute,5,,5022.0,R.scramb,E7
160,54.0,S,12.0,0.0,doll,0,doll,5059.0,R.scramb,E7
161,54.0,S,12.0,1.0,ball,1,ball,6457.0,R.scramb,E7
162,54.0,S,12.0,2.0,shawl,2,shawl,4566.0,R.scramb,E7
163,54.0,S,12.0,3.0,hall,3,,9050.0,R.scramb,E7
164,54.0,S,12.0,4.0,brawl,4,wall,6053.0,R.scramb,E7
165,54.0,S,12.0,5.0,wall,5,,4804.0,R.scramb,E7
166,54.0,S,13.0,0.0,bone,0,bone,4270.0,R.scramb,E7
167,54.0,S,13.0,1.0,phone,1,phone,5791.0,R.scramb,E7
168,54.0,S,13.0,2.0,stone,2,stone,6671.0,R.scramb,E7
169,54.0,S,14.0,0.0,deer,0,deer,4477.0,R.scramb,E7
170,54.0,S,14.0,1.0,sphere,1,sphere,5667.0,R.scramb,E7
171,54.0,S,14.0,2.0,ear,2,ear,7457.0,R.scramb,E7
172,54.0,S,14.0,3.0,tear,3,,4750.0,R.scramb,E7
173,54.0,S,15.0,0.0,pie,0,pie,6393.0,R.scramb,E7
174,54.0,S,15.0,1.0,fly,1,fly,6305.0,R.scramb,E7
175,54.0,S,15.0,2.0,tie,2,tie,4373.0,R.scramb,E7
176,54.0,S,15.0,3.0,sky,3,,6159.0,R.scramb,E7
177,54.0,S,15.0,4.0,eye,4,,5610.0,R.scramb,E7
178,54.0,D,16.0,0.0,toy,0,toy,5139.0,R.scramb,E7
179,54.0,D,16.0,1.0,wreck,1,wreck,6559.0,R.scramb,E7
180,54.0,D,16.0,2.0,frown,2,frown,6127.0,R.scramb,E7
181,54.0,D,17.0,0.0,chest,0,chest,4517.0,R.scramb,E7
182,54.0,D,17.0,1.0,lane,1,lane,4628.0,R.scramb,E7
183,54.0,D,17.0,2.0,hair,2,hair,7851.0,R.scramb,E7
184,54.0,D,17.0,3.0,crown,3,crown,8753.0,R.scramb,E7
185,54.0,D,18.0,0.0,shell,0,,5337.0,R.scramb,E7
186,54.0,D,18.0,1.0,tree,1,,5053.0,R.scramb,E7
187,54.0,D,18.0,2.0,bowl,2,ground,5475.0,R.scramb,E7
188,54.0,D,18.0,3.0,broom,3,,5786.0,R.scramb,E7
189,54.0,D,18.0,4.0,test,4,,5154.0,R.scramb,E7
190,54.0,D,18.0,5.0,ground,,,4022.0,R.scramb,E7
191,54.0,D,19.0,0.0,coin,0,coin,5753.0,R.scramb,E7
192,54.0,D,19.0,1.0,film,1,film,5765.0,R.scramb,E7
193,54.0,D,19.0,2.0,leaf,2,leaf,5206.0,R.scramb,E7
194,54.0,D,19.0,3.0,train,3,train,4319.0,R.scramb,E7
195,54.0,D,19.0,4.0,map,4,art,6773.0,R.scramb,E7
196,54.0,D,19.0,5.0,art,5,,5694.0,R.scramb,E7
197,54.0,D,20.0,0.0,deck,0,deck,4596.0,R.scramb,E7
198,54.0,D,20.0,1.0,slice,1,slice,4655.0,R.scramb,E7
199,54.0,D,20.0,2.0,rat,2,rat,5262.0,R.scramb,E7
200,54.0,D,21.0,0.0,beard,0,beard,4544.0,R.scramb,E7
201,54.0,D,21.0,1.0,hill,1,hill,4428.0,R.scramb,E7
202,54.0,D,21.0,2.0,dirt,2,dirt,4108.0,R.scramb,E7
203,54.0,D,21.0,3.0,card,3,card,6186.0,R.scramb,E7
204,54.0,D,21.0,4.0,line,4,line,6682.0,R.scramb,E7
205,54.0,D,22.0,0.0,ant,0,ant,4963.0,R.scramb,E7
206,54.0,D,22.0,1.0,air,1,air,5063.0,R.scramb,E7
207,54.0,D,22.0,2.0,ink,2,ink,7564.0,R.scramb,E7
208,54.0,D,22.0,3.0,cloud,3,,9150.0,R.scramb,E7
209,54.0,D,22.0,4.0,seat,4,breath,5012.0,R.scramb,E7
210,54.0,D,22.0,5.0,breath,5,,5422.0,R.scramb,E7
211,54.0,D,23.0,0.0,neck,0,neck,4897.0,R.scramb,E7
212,54.0,D,23.0,1.0,town,1,town,5086.0,R.scramb,E7
213,54.0,D,23.0,2.0,hat,2,hat,5188.0,R.scramb,E7
214,54.0,D,23.0,3.0,street,3,street,7118.0,R.scramb,E7
215,54.0,D,24.0,0.0,path,0,path,4272.0,R.scramb,E7
216,54.0,D,24.0,1.0,nest,1,nest,6057.0,R.scramb,E7
217,54.0,D,24.0,2.0,square,2,square,4838.0,R.scramb,E7
218,54.0,D,24.0,3.0,wood,3,wood,7638.0,R.scramb,E7
219,54.0,D,24.0,4.0,beach,4,beach,4035.0,R.scramb,E7
220,54.0,D,25.0,0.0,mare,0,mare,3834.0,R.scramb,E7
221,54.0,D,25.0,1.0,bell,1,bell,3853.0,R.scramb,E7
222,54.0,D,25.0,2.0,brain,2,brain,5597.0,R.scramb,E7
223,54.0,D,25.0,3.0,beef,3,beef,5550.0,R.scramb,E7
224,54.0,D,26.0,0.0,spice,0,spice,4000.0,R.scramb,E7
225,54.0,D,26.0,1.0,heat,1,heat,4162.0,R.scramb,E7
226,54.0,D,26.0,2.0,shape,2,shape,4318.0,R.scramb,E7
227,54.0,D,26.0,3.0,pear,3,pear,5026.0,R.scramb,E7
228,54.0,D,26.0,4.0,guest,4,,5323.0,R.scramb,E7
229,54.0,D,27.0,0.0,rice,0,rice,5469.0,R.scramb,E7
230,54.0,D,27.0,1.0,cat,1,cat,6131.0,R.scramb,E7
231,54.0,D,27.0,2.0,trash,2,trash,4318.0,R.scramb,E7
232,61.0,P,0.0,0.0,bath,0,bath,,R.scramb,E7
233,61.0,P,0.0,1.0,dawn,1,dawn,,R.scramb,E7
234,61.0,P,1.0,0.0,hood,0,hood,,R.scramb,E7
235,61.0,P,1.0,1.0,wood,1,wood,,R.scramb,E7
236,61.0,P,2.0,0.0,farm,0,farm,,R.scramb,E7
237,61.0,P,2.0,1.0,arm,1,arm,,R.scramb,E7
238,61.0,P,3.0,0.0,earth,0,earth,,R.scramb,E7
239,61.0,P,3.0,1.0,peach,1,peach,,R.scramb,E7
240,61.0,S,4.0,0.0,cream,0,dream,4851.0,R.scramb,E7
241,61.0,S,4.0,1.0,team,1,cream,4426.0,R.scramb,E7
242,61.0,S,4.0,2.0,steam,2,steam,7171.0,R.scramb,E7
243,61.0,S,5.0,0.0,doll,0,call,6353.0,R.scramb,E7
244,61.0,S,5.0,1.0,ball,1,doll,9227.0,R.scramb,E7
245,61.0,S,5.0,2.0,shawl,2,shawl,5031.0,R.scramb,E7
246,61.0,S,5.0,3.0,hall,3,brawl,9000.0,R.scramb,E7
247,61.0,S,5.0,4.0,brawl,4,wall,7701.0,R.scramb,E7
248,61.0,S,5.0,5.0,wall,,,7568.0,R.scramb,E7
249,61.0,S,6.0,0.0,bread,0,head,4618.0,R.scramb,E7
250,61.0,S,6.0,1.0,head,1,bread,5005.0,R.scramb,E7
251,61.0,S,6.0,2.0,thread,2,bed,5957.0,R.scramb,E7
252,61.0,S,6.0,3.0,bed,,,5223.0,R.scramb,E7
253,61.0,S,7.0,0.0,deer,0,deer,5703.0,R.scramb,E7
254,61.0,S,7.0,1.0,sphere,1,sphere,6765.0,R.scramb,E7
255,61.0,S,7.0,2.0,ear,2,ear,5958.0,R.scramb,E7
256,61.0,S,7.0,3.0,tear,3,tear,7784.0,R.scramb,E7
257,61.0,S,8.0,0.0,boot,0,boot,5972.0,R.scramb,E7
258,61.0,S,8.0,1.0,suit,1,suit,10398.0,R.scramb,E7
259,61.0,S,8.0,2.0,flute,2,flute,6595.0,R.scramb,E7
260,61.0,S,8.0,3.0,loot,3,loot,5234.0,R.scramb,E7
261,61.0,S,8.0,4.0,root,4,brute,9378.0,R.scramb,E7
262,61.0,S,8.0,5.0,brute,,,7200.0,R.scramb,E7
263,61.0,S,9.0,0.0,bone,0,bone,5964.0,R.scramb,E7
264,61.0,S,9.0,1.0,phone,1,phone,6783.0,R.scramb,E7
265,61.0,S,9.0,2.0,stone,2,stone,7367.0,R.scramb,E7
266,61.0,S,10.0,0.0,band,0,band,5759.0,R.scramb,E7
267,61.0,S,10.0,1.0,land,1,land,5938.0,R.scramb,E7
268,61.0,S,10.0,2.0,stand,2,stand,6830.0,R.scramb,E7
269,61.0,S,10.0,3.0,hand,3,hand,7132.0,R.scramb,E7
270,61.0,S,11.0,0.0,jar,0,jar,6197.0,R.scramb,E7
271,61.0,S,11.0,1.0,bar,1,bar,4814.0,R.scramb,E7
272,61.0,S,11.0,2.0,car,2,car,5358.0,R.scramb,E7
273,61.0,S,11.0,3.0,scar,3,scar,8505.0,R.scramb,E7
274,61.0,S,11.0,4.0,star,4,star,6452.0,R.scramb,E7
275,61.0,S,12.0,0.0,king,0,ring,4680.0,R.scramb,E7
276,61.0,S,12.0,1.0,ring,1,spring,6695.0,R.scramb,E7
277,61.0,S,12.0,2.0,spring,2,string,9691.0,R.scramb,E7
278,61.0,S,12.0,3.0,string,,,6956.0,R.scramb,E7
279,61.0,S,12.0,4.0,wing,,,8005.0,R.scramb,E7
280,61.0,S,13.0,0.0,blouse,0,blouse,4771.0,R.scramb,E7
281,61.0,S,13.0,1.0,house,1,house,4926.0,R.scramb,E7
282,61.0,S,13.0,2.0,mouse,2,mouse,6595.0,R.scramb,E7
283,61.0,S,14.0,0.0,pie,0,pie,5315.0,R.scramb,E7
284,61.0,S,14.0,1.0,fly,1,fly,8936.0,R.scramb,E7
285,61.0,S,14.0,2.0,tie,2,tie,9849.0,R.scramb,E7
286,61.0,S,14.0,3.0,sky,3,sky,5427.0,R.scramb,E7
287,61.0,S,14.0,4.0,eye,4,,8115.0,R.scramb,E7
288,61.0,S,15.0,0.0,mail,0,mail,7420.0,R.scramb,E7
289,61.0,S,15.0,1.0,sail,1,snail,9595.0,R.scramb,E7
290,61.0,S,15.0,2.0,trail,2,trail,7135.0,R.scramb,E7
291,61.0,S,15.0,3.0,wail,3,tail,9105.0,R.scramb,E7
292,61.0,S,15.0,4.0,tail,4,wail,7700.0,R.scramb,E7
293,61.0,S,15.0,5.0,jail,,,8422.0,R.scramb,E7
294,61.0,D,16.0,0.0,deck,0,deck,5661.0,R.scramb,E7
295,61.0,D,16.0,1.0,slice,1,slice,6891.0,R.scramb,E7
296,61.0,D,16.0,2.0,rat,2,rat,8072.0,R.scramb,E7
297,61.0,D,17.0,0.0,rice,0,dress,6213.0,R.scramb,E7
298,61.0,D,17.0,1.0,cat,1,cat,6093.0,R.scramb,E7
299,61.0,D,17.0,2.0,trash,2,trash,7298.0,R.scramb,E7
300,61.0,D,18.0,0.0,shell,0,shell,7515.0,R.scramb,E7
301,61.0,D,18.0,1.0,tree,1,tree,9405.0,R.scramb,E7
302,61.0,D,18.0,2.0,bowl,2,bowl,8531.0,R.scramb,E7
303,61.0,D,18.0,3.0,broom,3,broom,8987.0,R.scramb,E7
304,61.0,D,18.0,4.0,test,4,ground,6193.0,R.scramb,E7
305,61.0,D,18.0,5.0,ground,5,test,7555.0,R.scramb,E7
306,61.0,D,19.0,0.0,beard,0,hill,5641.0,R.scramb,E7
307,61.0,D,19.0,1.0,hill,1,dirt,8248.0,R.scramb,E7
308,61.0,D,19.0,2.0,dirt,2,card,6101.0,R.scramb,E7
309,61.0,D,19.0,3.0,card,3,line,7193.0,R.scramb,E7
310,61.0,D,19.0,4.0,line,,,8248.0,R.scramb,E7
311,61.0,D,20.0,0.0,toy,0,toy,6087.0,R.scramb,E7
312,61.0,D,20.0,1.0,wreck,1,wrecked,6269.0,R.scramb,E7
313,61.0,D,20.0,2.0,frown,2,frown,7034.0,R.scramb,E7
314,61.0,D,21.0,0.0,chest,0,chest,5904.0,R.scramb,E7
315,61.0,D,21.0,1.0,lane,1,lane,7005.0,R.scramb,E7
316,61.0,D,21.0,2.0,hair,2,hair,7813.0,R.scramb,E7
317,61.0,D,21.0,3.0,crown,3,crown,9523.0,R.scramb,E7
318,61.0,D,22.0,0.0,path,0,nest,5144.0,R.scramb,E7
319,61.0,D,22.0,1.0,nest,1,square,9116.0,R.scramb,E7
320,61.0,D,22.0,2.0,square,2,wood,7566.0,R.scramb,E7
321,61.0,D,22.0,3.0,wood,3,beach,6846.0,R.scramb,E7
322,61.0,D,22.0,4.0,beach,,,8068.0,R.scramb,E7
323,61.0,D,23.0,0.0,spice,0,spice,5351.0,R.scramb,E7
324,61.0,D,23.0,1.0,heat,1,heat,4986.0,R.scramb,E7
325,61.0,D,23.0,2.0,shape,2,guest,8716.0,R.scramb,E7
326,61.0,D,23.0,3.0,pear,,,6421.0,R.scramb,E7
327,61.0,D,23.0,4.0,guest,,,9222.0,R.scramb,E7
328,61.0,D,24.0,0.0,mare,0,mare,5314.0,R.scramb,E7
329,61.0,D,24.0,1.0,bell,1,bell,4926.0,R.scramb,E7
330,61.0,D,24.0,2.0,brain,2,brain,6635.0,R.scramb,E7
331,61.0,D,24.0,3.0,beef,3,beef,7337.0,R.scramb,E7
332,61.0,D,25.0,0.0,coin,0,coin,8603.0,R.scramb,E7
333,61.0,D,25.0,1.0,film,1,film,7490.0,R.scramb,E7
334,61.0,D,25.0,2.0,leaf,2,leaf,6612.0,R.scramb,E7
335,61.0,D,25.0,3.0,train,3,train,7284.0,R.scramb,E7
336,61.0,D,25.0,4.0,map,4,map,6857.0,R.scramb,E7
337,61.0,D,25.0,5.0,art,5,art,7821.0,R.scramb,E7
338,61.0,D,26.0,0.0,ant,0,ant,6166.0,R.scramb,E7
339,61.0,D,26.0,1.0,air,1,air,7864.0,R.scramb,E7
340,61.0,D,26.0,2.0,ink,2,ink,7356.0,R.scramb,E7
341,61.0,D,26.0,3.0,cloud,3,cloud,8086.0,R.scramb,E7
342,61.0,D,26.0,4.0,seat,4,seat,7600.0,R.scramb,E7
343,61.0,D,26.0,5.0,breath,,,9767.0,R.scramb,E7
344,61.0,D,27.0,0.0,neck,0,neck,7824.0,R.scramb,E7
345,61.0,D,27.0,1.0,town,1,town,7175.0,R.scramb,E7
346,61.0,D,27.0,2.0,hat,2,hat,7200.0,R.scramb,E7
347,61.0,D,27.0,3.0,street,3,street,8079.0,R.scramb,E7
348,62.0,P,0.0,0.0,hood,0,word,,R.scramb,E7
349,62.0,P,0.0,1.0,wood,1,wood,,R.scramb,E7
350,62.0,P,1.0,0.0,farm,0,farm,,R.scramb,E7
351,62.0,P,1.0,1.0,arm,1,arm,,R.scramb,E7
352,62.0,P,2.0,0.0,bath,0,bath,,R.scramb,E7
353,62.0,P,2.0,1.0,dawn,1,dawn,,R.scramb,E7
354,62.0,P,3.0,0.0,earth,0,earth,,R.scramb,E7
355,62.0,P,3.0,1.0,peach,1,peach,,R.scramb,E7
356,62.0,D,4.0,0.0,deck,0,,4673.0,R.scramb,E7
357,62.0,D,4.0,1.0,slice,1,,4073.0,R.scramb,E7
358,62.0,D,4.0,2.0,rat,2,rat,4768.0,R.scramb,E7
359,62.0,D,5.0,0.0,mare,0,mare,4202.0,R.scramb,E7
360,62.0,D,5.0,1.0,bell,1,bell,4317.0,R.scramb,E7
361,62.0,D,5.0,2.0,brain,2,,4274.0,R.scramb,E7
362,62.0,D,5.0,3.0,beef,3,beef,6912.0,R.scramb,E7
363,62.0,D,6.0,0.0,path,0,,4234.0,R.scramb,E7
364,62.0,D,6.0,1.0,nest,1,path,5533.0,R.scramb,E7
365,62.0,D,6.0,2.0,square,2,nest,6808.0,R.scramb,E7
366,62.0,D,6.0,3.0,wood,3,,7096.0,R.scramb,E7
367,62.0,D,6.0,4.0,beach,4,book,5555.0,R.scramb,E7
368,62.0,D,7.0,0.0,spice,0,,4891.0,R.scramb,E7
369,62.0,D,7.0,1.0,heat,1,,4065.0,R.scramb,E7
370,62.0,D,7.0,2.0,shape,2,,6752.0,R.scramb,E7
371,62.0,D,7.0,3.0,pear,3,pear,4747.0,R.scramb,E7
372,62.0,D,7.0,4.0,guest,4,guest,5895.0,R.scramb,E7
373,62.0,D,8.0,0.0,coin,0,coin,5357.0,R.scramb,E7
374,62.0,D,8.0,1.0,film,1,,5914.0,R.scramb,E7
375,62.0,D,8.0,2.0,leaf,2,train,6102.0,R.scramb,E7
376,62.0,D,8.0,3.0,train,3,,4714.0,R.scramb,E7
377,62.0,D,8.0,4.0,map,4,,5152.0,R.scramb,E7
378,62.0,D,8.0,5.0,art,5,,5315.0,R.scramb,E7
379,62.0,D,9.0,0.0,chest,0,chest,4466.0,R.scramb,E7
380,62.0,D,9.0,1.0,lane,1,,5289.0,R.scramb,E7
381,62.0,D,9.0,2.0,hair,2,,7350.0,R.scramb,E7
382,62.0,D,9.0,3.0,crown,3,crown,7583.0,R.scramb,E7
383,62.0,D,10.0,0.0,neck,0,neck,4027.0,R.scramb,E7
384,62.0,D,10.0,1.0,town,1,town,5076.0,R.scramb,E7
385,62.0,D,10.0,2.0,hat,2,,6555.0,R.scramb,E7
386,62.0,D,10.0,3.0,street,3,street,6565.0,R.scramb,E7
387,62.0,D,11.0,0.0,rice,0,,6218.0,R.scramb,E7
388,62.0,D,11.0,1.0,cat,1,cat,5924.0,R.scramb,E7
389,62.0,D,11.0,2.0,trash,2,trash,5319.0,R.scramb,E7
390,62.0,D,12.0,0.0,toy,0,toy,4627.0,R.scramb,E7
391,62.0,D,12.0,1.0,wreck,1,train,6867.0,R.scramb,E7
392,62.0,D,12.0,2.0,frown,2,frown,6871.0,R.scramb,E7
393,62.0,D,13.0,0.0,ant,0,air,4122.0,R.scramb,E7
394,62.0,D,13.0,1.0,air,1,ant,5792.0,R.scramb,E7
395,62.0,D,13.0,2.0,ink,2,,5552.0,R.scramb,E7
396,62.0,D,13.0,3.0,cloud,3,,7859.0,R.scramb,E7
397,62.0,D,13.0,4.0,seat,4,,4424.0,R.scramb,E7
398,62.0,D,13.0,5.0,breath,5,,5640.0,R.scramb,E7
399,62.0,D,14.0,0.0,shell,0,shell,4738.0,R.scramb,E7
400,62.0,D,14.0,1.0,tree,1,,5944.0,R.scramb,E7
401,62.0,D,14.0,2.0,bowl,2,,5362.0,R.scramb,E7
402,62.0,D,14.0,3.0,broom,3,,7797.0,R.scramb,E7
403,62.0,D,14.0,4.0,test,4,ground,5891.0,R.scramb,E7
404,62.0,D,14.0,5.0,ground,,,4183.0,R.scramb,E7
405,62.0,D,15.0,0.0,beard,0,beard,6263.0,R.scramb,E7
406,62.0,D,15.0,1.0,hill,1,hill,4254.0,R.scramb,E7
407,62.0,D,15.0,2.0,dirt,2,dirt,5453.0,R.scramb,E7
408,62.0,D,15.0,3.0,card,3,,10821.0,R.scramb,E7
409,62.0,D,15.0,4.0,line,4,line,5935.0,R.scramb,E7
410,62.0,S,16.0,0.0,boot,0,boot,5388.0,R.scramb,E7
411,62.0,S,16.0,1.0,suit,1,suit,5845.0,R.scramb,E7
412,62.0,S,16.0,2.0,flute,2,loot,5724.0,R.scramb,E7
413,62.0,S,16.0,3.0,loot,3,brute,7096.0,R.scramb,E7
414,62.0,S,16.0,4.0,root,,,6004.0,R.scramb,E7
415,62.0,S,16.0,5.0,brute,,,7691.0,R.scramb,E7
416,62.0,S,17.0,0.0,mail,0,sail,7260.0,R.scramb,E7
417,62.0,S,17.0,1.0,sail,1,tail,8088.0,R.scramb,E7
418,62.0,S,17.0,2.0,trail,2,trail,7780.0,R.scramb,E7
419,62.0,S,17.0,3.0,wail,3,mail,8491.0,R.scramb,E7
420,62.0,S,17.0,4.0,tail,4,,5542.0,R.scramb,E7
421,62.0,S,17.0,5.0,jail,,,5280.0,R.scramb,E7
422,62.0,S,18.0,0.0,blouse,0,blouse,5482.0,R.scramb,E7
423,62.0,S,18.0,1.0,house,1,house,3775.0,R.scramb,E7
424,62.0,S,18.0,2.0,mouse,2,mouse,5731.0,R.scramb,E7
425,62.0,S,19.0,0.0,king,0,,4047.0,R.scramb,E7
426,62.0,S,19.0,1.0,ring,1,ring,5823.0,R.scramb,E7
427,62.0,S,19.0,2.0,spring,2,string,6742.0,R.scramb,E7
428,62.0,S,19.0,3.0,string,3,,4295.0,R.scramb,E7
429,62.0,S,19.0,4.0,wing,4,,6638.0,R.scramb,E7
430,62.0,S,20.0,0.0,deer,0,deer,4513.0,R.scramb,E7
431,62.0,S,20.0,1.0,sphere,1,,4470.0,R.scramb,E7
432,62.0,S,20.0,2.0,ear,2,,5333.0,R.scramb,E7
433,62.0,S,20.0,3.0,tear,3,tear,5274.0,R.scramb,E7
434,62.0,S,21.0,0.0,jar,0,jar,5123.0,R.scramb,E7
435,62.0,S,21.0,1.0,bar,1,bar,4176.0,R.scramb,E7
436,62.0,S,21.0,2.0,car,2,car,4804.0,R.scramb,E7
437,62.0,S,21.0,3.0,scar,3,,6789.0,R.scramb,E7
438,62.0,S,21.0,4.0,star,4,star,3892.0,R.scramb,E7
439,62.0,S,22.0,0.0,band,0,band,4271.0,R.scramb,E7
440,62.0,S,22.0,1.0,land,1,land,5559.0,R.scramb,E7
441,62.0,S,22.0,2.0,stand,2,,5736.0,R.scramb,E7
442,62.0,S,22.0,3.0,hand,3,hand,8661.0,R.scramb,E7
443,62.0,S,23.0,0.0,bread,0,bread,4133.0,R.scramb,E7
444,62.0,S,23.0,1.0,head,1,head,4514.0,R.scramb,E7
445,62.0,S,23.0,2.0,thread,2,,7584.0,R.scramb,E7
446,62.0,S,23.0,3.0,bed,3,bed,4247.0,R.scramb,E7
447,62.0,S,24.0,0.0,doll,0,ball,4821.0,R.scramb,E7
448,62.0,S,24.0,1.0,ball,1,,5870.0,R.scramb,E7
449,62.0,S,24.0,2.0,shawl,2,shawl,5836.0,R.scramb,E7
450,62.0,S,24.0,3.0,hall,3,hall,6586.0,R.scramb,E7
451,62.0,S,24.0,4.0,brawl,4,brawl,6988.0,R.scramb,E7
452,62.0,S,24.0,5.0,wall,5,,5556.0,R.scramb,E7
453,62.0,S,25.0,0.0,bone,0,bone,4297.0,R.scramb,E7
454,62.0,S,25.0,1.0,phone,1,phone,5600.0,R.scramb,E7
455,62.0,S,25.0,2.0,stone,2,stone,5833.0,R.scramb,E7
456,62.0,S,26.0,0.0,cream,0,cream,5927.0,R.scramb,E7
457,62.0,S,26.0,1.0,team,1,,5075.0,R.scramb,E7
458,62.0,S,26.0,2.0,steam,2,steam,6625.0,R.scramb,E7
459,62.0,S,27.0,0.0,pie,0,,4378.0,R.scramb,E7
460,62.0,S,27.0,1.0,fly,1,fly,7085.0,R.scramb,E7
461,62.0,S,27.0,2.0,tie,2,pie,5266.0,R.scramb,E7
462,62.0,S,27.0,3.0,sky,3,sky,7296.0,R.scramb,E7
463,62.0,S,27.0,4.0,eye,4,eye,6690.0,R.scramb,E7
464,66.0,P,0.0,0.0,earth,0,earth,,R.scramb,E7
465,66.0,P,0.0,1.0,peach,1,peach,,R.scramb,E7
466,66.0,P,1.0,0.0,bath,0,bath,,R.scramb,E7
467,66.0,P,1.0,1.0,dawn,1,dawn,,R.scramb,E7
468,66.0,P,2.0,0.0,hood,0,,,R.scramb,E7
469,66.0,P,2.0,1.0,wood,1,wood,,R.scramb,E7
470,66.0,P,3.0,0.0,farm,0,farm,,R.scramb,E7
471,66.0,P,3.0,1.0,arm,1,arm,,R.scramb,E7
472,66.0,D,4.0,0.0,ant,0,world,5630.0,R.scramb,E7
473,66.0,D,4.0,1.0,air,1,air,5721.0,R.scramb,E7
474,66.0,D,4.0,2.0,ink,2,ink,6742.0,R.scramb,E7
475,66.0,D,4.0,3.0,cloud,3,ant,6806.0,R.scramb,E7
476,66.0,D,4.0,4.0,seat,4,seat,6189.0,R.scramb,E7
477,66.0,D,4.0,5.0,breath,5,breath,6294.0,R.scramb,E7
478,66.0,D,5.0,0.0,chest,0,chest,5468.0,R.scramb,E7
479,66.0,D,5.0,1.0,lane,1,lane,5904.0,R.scramb,E7
480,66.0,D,5.0,2.0,hair,2,hair,6232.0,R.scramb,E7
481,66.0,D,5.0,3.0,crown,3,crown,7289.0,R.scramb,E7
482,66.0,D,6.0,0.0,toy,0,toy,5541.0,R.scramb,E7
483,66.0,D,6.0,1.0,wreck,1,wreck,6165.0,R.scramb,E7
484,66.0,D,6.0,2.0,frown,2,frown,5633.0,R.scramb,E7
485,66.0,D,7.0,0.0,mare,0,mare,5757.0,R.scramb,E7
486,66.0,D,7.0,1.0,bell,1,beef,4936.0,R.scramb,E7
487,66.0,D,7.0,2.0,brain,,,4855.0,R.scramb,E7
488,66.0,D,7.0,3.0,beef,,,7023.0,R.scramb,E7
489,66.0,D,8.0,0.0,beard,0,beard,5524.0,R.scramb,E7
490,66.0,D,8.0,1.0,hill,1,hill,5587.0,R.scramb,E7
491,66.0,D,8.0,2.0,dirt,2,line,5069.0,R.scramb,E7
492,66.0,D,8.0,3.0,card,,,6703.0,R.scramb,E7
493,66.0,D,8.0,4.0,line,,,6151.0,R.scramb,E7
494,66.0,D,9.0,0.0,deck,0,deck,4574.0,R.scramb,E7
495,66.0,D,9.0,1.0,slice,1,slice,5173.0,R.scramb,E7
496,66.0,D,9.0,2.0,rat,2,rat,4885.0,R.scramb,E7
497,66.0,D,10.0,0.0,neck,0,deck,4781.0,R.scramb,E7
498,66.0,D,10.0,1.0,town,1,town,5253.0,R.scramb,E7
499,66.0,D,10.0,2.0,hat,2,dress,5813.0,R.scramb,E7
500,66.0,D,10.0,3.0,street,3,hat,6493.0,R.scramb,E7
501,66.0,D,11.0,0.0,spice,0,spice,846.0,R.scramb,E7
502,66.0,D,11.0,1.0,heat,1,heat,6346.0,R.scramb,E7
503,66.0,D,11.0,2.0,shape,2,pear,5645.0,R.scramb,E7
504,66.0,D,11.0,3.0,pear,3,,4522.0,R.scramb,E7
505,66.0,D,11.0,4.0,guest,,,6345.0,R.scramb,E7
506,66.0,D,12.0,0.0,path,0,path,5313.0,R.scramb,E7
507,66.0,D,12.0,1.0,nest,1,beach,5010.0,R.scramb,E7
508,66.0,D,12.0,2.0,square,,,4496.0,R.scramb,E7
509,66.0,D,12.0,3.0,wood,,,5984.0,R.scramb,E7
510,66.0,D,12.0,4.0,beach,,,5544.0,R.scramb,E7
511,66.0,D,13.0,0.0,rice,0,cat,6272.0,R.scramb,E7
512,66.0,D,13.0,1.0,cat,1,trash,5267.0,R.scramb,E7
513,66.0,D,13.0,2.0,trash,,,5198.0,R.scramb,E7
514,66.0,D,14.0,0.0,coin,0,leaf,7656.0,R.scramb,E7
515,66.0,D,14.0,1.0,film,1,soap,5849.0,R.scramb,E7
516,66.0,D,14.0,2.0,leaf,2,art,5798.0,R.scramb,E7
517,66.0,D,14.0,3.0,train,,,6201.0,R.scramb,E7
518,66.0,D,14.0,4.0,map,,,5597.0,R.scramb,E7
519,66.0,D,14.0,5.0,art,,,6225.0,R.scramb,E7
520,66.0,D,15.0,0.0,shell,0,shell,6660.0,R.scramb,E7
521,66.0,D,15.0,1.0,tree,1,tree,5964.0,R.scramb,E7
522,66.0,D,15.0,2.0,bowl,2,bowl,6664.0,R.scramb,E7
523,66.0,D,15.0,3.0,broom,3,,5849.0,R.scramb,E7
524,66.0,D,15.0,4.0,test,4,,5655.0,R.scramb,E7
525,66.0,D,15.0,5.0,ground,5,ground,5495.0,R.scramb,E7
526,66.0,S,16.0,0.0,bone,0,,5816.0,R.scramb,E7
527,66.0,S,16.0,1.0,phone,1,,5345.0,R.scramb,E7
528,66.0,S,16.0,2.0,stone,2,stone,6200.0,R.scramb,E7
529,66.0,S,17.0,0.0,jar,0,jar,5435.0,R.scramb,E7
530,66.0,S,17.0,1.0,bar,1,bar,4622.0,R.scramb,E7
531,66.0,S,17.0,2.0,car,2,car,5031.0,R.scramb,E7
532,66.0,S,17.0,3.0,scar,3,scar,6600.0,R.scramb,E7
533,66.0,S,17.0,4.0,star,4,star,6806.0,R.scramb,E7
534,66.0,S,18.0,0.0,deer,0,deer,5570.0,R.scramb,E7
535,66.0,S,18.0,1.0,sphere,1,sphere,6271.0,R.scramb,E7
536,66.0,S,18.0,2.0,ear,2,fear,5185.0,R.scramb,E7
537,66.0,S,18.0,3.0,tear,3,tear,7251.0,R.scramb,E7
538,66.0,S,19.0,0.0,king,0,king,5270.0,R.scramb,E7
539,66.0,S,19.0,1.0,ring,1,ring,5138.0,R.scramb,E7
540,66.0,S,19.0,2.0,spring,2,spring,7610.0,R.scramb,E7
541,66.0,S,19.0,3.0,string,3,string,4342.0,R.scramb,E7
542,66.0,S,19.0,4.0,wing,4,wing,7951.0,R.scramb,E7
543,66.0,S,20.0,0.0,band,0,band,4794.0,R.scramb,E7
544,66.0,S,20.0,1.0,land,1,land,5109.0,R.scramb,E7
545,66.0,S,20.0,2.0,stand,2,stand,5399.0,R.scramb,E7
546,66.0,S,20.0,3.0,hand,3,hand,5708.0,R.scramb,E7
547,66.0,S,21.0,0.0,doll,0,doll,5729.0,R.scramb,E7
548,66.0,S,21.0,1.0,ball,1,ball,5879.0,R.scramb,E7
549,66.0,S,21.0,2.0,shawl,2,shawl,4669.0,R.scramb,E7
550,66.0,S,21.0,3.0,hall,3,stall,8878.0,R.scramb,E7
551,66.0,S,21.0,4.0,brawl,4,wall,6716.0,R.scramb,E7
552,66.0,S,21.0,5.0,wall,,,5854.0,R.scramb,E7
553,66.0,S,22.0,0.0,pie,0,pie,4746.0,R.scramb,E7
554,66.0,S,22.0,1.0,fly,1,fly,6325.0,R.scramb,E7
555,66.0,S,22.0,2.0,tie,2,tie,5169.0,R.scramb,E7
556,66.0,S,22.0,3.0,sky,3,sky,5055.0,R.scramb,E7
557,66.0,S,22.0,4.0,eye,4,eye,8223.0,R.scramb,E7
558,66.0,S,23.0,0.0,mail,0,,6623.0,R.scramb,E7
559,66.0,S,23.0,1.0,sail,1,sail,6440.0,R.scramb,E7
560,66.0,S,23.0,2.0,trail,2,trail,5988.0,R.scramb,E7
561,66.0,S,23.0,3.0,wail,3,,6895.0,R.scramb,E7
562,66.0,S,23.0,4.0,tail,4,jail,5847.0,R.scramb,E7
563,66.0,S,23.0,5.0,jail,,,5460.0,R.scramb,E7
564,66.0,S,24.0,0.0,boot,0,boot,6197.0,R.scramb,E7
565,66.0,S,24.0,1.0,suit,1,suit,5960.0,R.scramb,E7
566,66.0,S,24.0,2.0,flute,2,flute,4444.0,R.scramb,E7
567,66.0,S,24.0,3.0,loot,3,loot,5393.0,R.scramb,E7
568,66.0,S,24.0,4.0,root,4,brute,6541.0,R.scramb,E7
569,66.0,S,24.0,5.0,brute,,,5157.0,R.scramb,E7
570,66.0,S,25.0,0.0,blouse,0,blouse,4533.0,R.scramb,E7
571,66.0,S,25.0,1.0,house,1,house,4676.0,R.scramb,E7
572,66.0,S,25.0,2.0,mouse,2,mouse,4520.0,R.scramb,E7
573,66.0,S,26.0,0.0,bread,0,bread,4469.0,R.scramb,E7
574,66.0,S,26.0,1.0,head,1,head,4552.0,R.scramb,E7
575,66.0,S,26.0,2.0,thread,2,thread,5035.0,R.scramb,E7
576,66.0,S,26.0,3.0,bed,3,bed,7525.0,R.scramb,E7
577,66.0,S,27.0,0.0,cream,0,cream,4602.0,R.scramb,E7
578,66.0,S,27.0,1.0,team,1,team,3959.0,R.scramb,E7
579,66.0,S,27.0,2.0,steam,2,steam,6212.0,R.scramb,E7
580,67.0,P,0.0,0.0,farm,0,farm,,R.scramb,E7
581,67.0,P,0.0,1.0,arm,1,arm,,R.scramb,E7
582,67.0,P,1.0,0.0,earth,0,earth,,R.scramb,E7
583,67.0,P,1.0,1.0,peach,1,peach,,R.scramb,E7
584,67.0,P,2.0,0.0,hood,0,hood,,R.scramb,E7
585,67.0,P,2.0,1.0,wood,1,wood,,R.scramb,E7
586,67.0,P,3.0,0.0,bath,0,bath,,R.scramb,E7
587,67.0,P,3.0,1.0,dawn,1,dawn,,R.scramb,E7
588,67.0,S,4.0,0.0,blouse,0,blouse,5484.0,R.scramb,E7
589,67.0,S,4.0,1.0,house,1,house,4585.0,R.scramb,E7
590,67.0,S,4.0,2.0,mouse,2,mouse,5475.0,R.scramb,E7
591,67.0,S,5.0,0.0,boot,0,boot,6523.0,R.scramb,E7
592,67.0,S,5.0,1.0,suit,1,suit,7386.0,R.scramb,E7
593,67.0,S,5.0,2.0,flute,2,flute,5780.0,R.scramb,E7
594,67.0,S,5.0,3.0,loot,3,root,5332.0,R.scramb,E7
595,67.0,S,5.0,4.0,root,4,brute,7716.0,R.scramb,E7
596,67.0,S,5.0,5.0,brute,,,7631.0,R.scramb,E7
597,67.0,S,6.0,0.0,cream,0,cream,5556.0,R.scramb,E7
598,67.0,S,6.0,1.0,team,1,team,4855.0,R.scramb,E7
599,67.0,S,6.0,2.0,steam,2,steam,6574.0,R.scramb,E7
600,67.0,S,7.0,0.0,band,0,band,6503.0,R.scramb,E7
601,67.0,S,7.0,1.0,land,1,land,6591.0,R.scramb,E7
602,67.0,S,7.0,2.0,stand,2,stand,6482.0,R.scramb,E7
603,67.0,S,7.0,3.0,hand,3,hand,6935.0,R.scramb,E7
604,67.0,S,8.0,0.0,pie,0,pie,6087.0,R.scramb,E7
605,67.0,S,8.0,1.0,fly,1,fly,8228.0,R.scramb,E7
606,67.0,S,8.0,2.0,tie,2,tie,5623.0,R.scramb,E7
607,67.0,S,8.0,3.0,sky,3,sky,5967.0,R.scramb,E7
608,67.0,S,8.0,4.0,eye,4,eye,6772.0,R.scramb,E7
609,67.0,S,9.0,0.0,bone,0,bone,6015.0,R.scramb,E7
610,67.0,S,9.0,1.0,phone,1,phone,5616.0,R.scramb,E7
611,67.0,S,9.0,2.0,stone,2,stone,6839.0,R.scramb,E7
612,67.0,S,10.0,0.0,bread,0,bread,5324.0,R.scramb,E7
613,67.0,S,10.0,1.0,head,1,head,5066.0,R.scramb,E7
614,67.0,S,10.0,2.0,thread,2,thread,6708.0,R.scramb,E7
615,67.0,S,10.0,3.0,bed,3,bed,5327.0,R.scramb,E7
616,67.0,S,11.0,0.0,jar,0,jar,5471.0,R.scramb,E7
617,67.0,S,11.0,1.0,bar,1,bar,4731.0,R.scramb,E7
618,67.0,S,11.0,2.0,car,2,car,5431.0,R.scramb,E7
619,67.0,S,11.0,3.0,scar,3,scar,7771.0,R.scramb,E7
620,67.0,S,11.0,4.0,star,4,star,6376.0,R.scramb,E7
621,67.0,S,12.0,0.0,doll,0,doll,5784.0,R.scramb,E7
622,67.0,S,12.0,1.0,ball,1,,6544.0,R.scramb,E7
623,67.0,S,12.0,2.0,shawl,2,,6432.0,R.scramb,E7
624,67.0,S,12.0,3.0,hall,3,brawl,8595.0,R.scramb,E7
625,67.0,S,12.0,4.0,brawl,4,,6636.0,R.scramb,E7
626,67.0,S,12.0,5.0,wall,,,5743.0,R.scramb,E7
627,67.0,S,13.0,0.0,king,0,king,5422.0,R.scramb,E7
628,67.0,S,13.0,1.0,ring,1,ring,7470.0,R.scramb,E7
629,67.0,S,13.0,2.0,spring,2,spring,7015.0,R.scramb,E7
630,67.0,S,13.0,3.0,string,3,string,4791.0,R.scramb,E7
631,67.0,S,13.0,4.0,wing,4,wing,7810.0,R.scramb,E7
632,67.0,S,14.0,0.0,mail,0,mail,8950.0,R.scramb,E7
633,67.0,S,14.0,1.0,sail,1,sail,9127.0,R.scramb,E7
634,67.0,S,14.0,2.0,trail,2,,5958.0,R.scramb,E7
635,67.0,S,14.0,3.0,wail,3,wail,7160.0,R.scramb,E7
636,67.0,S,14.0,4.0,tail,4,jail,6133.0,R.scramb,E7
637,67.0,S,14.0,5.0,jail,,,6653.0,R.scramb,E7
638,67.0,S,15.0,0.0,deer,0,deer,6013.0,R.scramb,E7
639,67.0,S,15.0,1.0,sphere,1,sphere,6269.0,R.scramb,E7
640,67.0,S,15.0,2.0,ear,2,ear,6865.0,R.scramb,E7
641,67.0,S,15.0,3.0,tear,3,tear,6216.0,R.scramb,E7
642,67.0,D,16.0,0.0,chest,0,chest,6280.0,R.scramb,E7
643,67.0,D,16.0,1.0,lane,1,hair,7134.0,R.scramb,E7
644,67.0,D,16.0,2.0,hair,2,ring,7998.0,R.scramb,E7
645,67.0,D,16.0,3.0,crown,3,,9561.0,R.scramb,E7
646,67.0,D,17.0,0.0,toy,0,,6184.0,R.scramb,E7
647,67.0,D,17.0,1.0,wreck,1,wreck,7432.0,R.scramb,E7
648,67.0,D,17.0,2.0,frown,2,frown,6140.0,R.scramb,E7
649,67.0,D,18.0,0.0,beard,0,,6133.0,R.scramb,E7
650,67.0,D,18.0,1.0,hill,1,,6053.0,R.scramb,E7
651,67.0,D,18.0,2.0,dirt,2,,6085.0,R.scramb,E7
652,67.0,D,18.0,3.0,card,3,line,8243.0,R.scramb,E7
653,67.0,D,18.0,4.0,line,,,8208.0,R.scramb,E7
654,67.0,D,19.0,0.0,spice,0,spice,6069.0,R.scramb,E7
655,67.0,D,19.0,1.0,heat,1,heat,4705.0,R.scramb,E7
656,67.0,D,19.0,2.0,shape,2,shape,7016.0,R.scramb,E7
657,67.0,D,19.0,3.0,pear,3,guest,6104.0,R.scramb,E7
658,67.0,D,19.0,4.0,guest,,,5787.0,R.scramb,E7
659,67.0,D,20.0,0.0,shell,0,shell,7783.0,R.scramb,E7
660,67.0,D,20.0,1.0,tree,1,tree,6374.0,R.scramb,E7
661,67.0,D,20.0,2.0,bowl,2,bowl,7166.0,R.scramb,E7
662,67.0,D,20.0,3.0,broom,3,test,8291.0,R.scramb,E7
663,67.0,D,20.0,4.0,test,4,ground,7292.0,R.scramb,E7
664,67.0,D,20.0,5.0,ground,,,5433.0,R.scramb,E7
665,67.0,D,21.0,0.0,ant,0,ant,6836.0,R.scramb,E7
666,67.0,D,21.0,1.0,air,1,air,5702.0,R.scramb,E7
667,67.0,D,21.0,2.0,ink,2,ink,6854.0,R.scramb,E7
668,67.0,D,21.0,3.0,cloud,3,,6743.0,R.scramb,E7
669,67.0,D,21.0,4.0,seat,4,breath,7606.0,R.scramb,E7
670,67.0,D,21.0,5.0,breath,,,6420.0,R.scramb,E7
671,67.0,D,22.0,0.0,deck,0,deck,5687.0,R.scramb,E7
672,67.0,D,22.0,1.0,slice,1,slice,5339.0,R.scramb,E7
673,67.0,D,22.0,2.0,rat,2,rat,5732.0,R.scramb,E7
674,67.0,D,23.0,0.0,path,0,path,5366.0,R.scramb,E7
675,67.0,D,23.0,1.0,nest,1,,6548.0,R.scramb,E7
676,67.0,D,23.0,2.0,square,2,,5446.0,R.scramb,E7
677,67.0,D,23.0,3.0,wood,3,,7475.0,R.scramb,E7
678,67.0,D,23.0,4.0,beach,4,beach,6407.0,R.scramb,E7
679,67.0,D,24.0,0.0,coin,0,coin,7803.0,R.scramb,E7
680,67.0,D,24.0,1.0,film,1,film,5849.0,R.scramb,E7
681,67.0,D,24.0,2.0,leaf,2,train,6694.0,R.scramb,E7
682,67.0,D,24.0,3.0,train,3,,6638.0,R.scramb,E7
683,67.0,D,24.0,4.0,map,4,art,6780.0,R.scramb,E7
684,67.0,D,24.0,5.0,art,,,6125.0,R.scramb,E7
685,67.0,D,25.0,0.0,rice,0,,8574.0,R.scramb,E7
686,67.0,D,25.0,1.0,cat,1,,6751.0,R.scramb,E7
687,67.0,D,25.0,2.0,trash,2,trash,6145.0,R.scramb,E7
688,67.0,D,26.0,0.0,neck,0,neck,8319.0,R.scramb,E7
689,67.0,D,26.0,1.0,town,1,town,6588.0,R.scramb,E7
690,67.0,D,26.0,2.0,hat,2,,8424.0,R.scramb,E7
691,67.0,D,26.0,3.0,street,3,street,7991.0,R.scramb,E7
692,67.0,D,27.0,0.0,mare,0,,5631.0,R.scramb,E7
693,67.0,D,27.0,1.0,bell,1,,4834.0,R.scramb,E7
694,67.0,D,27.0,2.0,brain,2,,6524.0,R.scramb,E7
695,67.0,D,27.0,3.0,beef,3,beef,8658.0,R.scramb,E7
696,68.0,P,0.0,0.0,farm,0,farm,,R.scramb,E7
697,68.0,P,0.0,1.0,arm,1,arm,,R.scramb,E7
698,68.0,P,1.0,0.0,bath,0,,,R.scramb,E7
699,68.0,P,1.0,1.0,dawn,1,dawn,,R.scramb,E7
700,68.0,P,2.0,0.0,earth,0,earth,,R.scramb,E7
701,68.0,P,2.0,1.0,peach,1,peach,,R.scramb,E7
702,68.0,P,3.0,0.0,hood,0,hood,,R.scramb,E7
703,68.0,P,3.0,1.0,wood,1,wood,,R.scramb,E7
704,68.0,S,4.0,0.0,bone,0,bone,4918.0,R.scramb,E7
705,68.0,S,4.0,1.0,phone,1,,5280.0,R.scramb,E7
706,68.0,S,4.0,2.0,stone,2,stone,7102.0,R.scramb,E7
707,68.0,S,5.0,0.0,jar,0,jar,4787.0,R.scramb,E7
708,68.0,S,5.0,1.0,bar,1,bar,4654.0,R.scramb,E7
709,68.0,S,5.0,2.0,car,2,scar,4670.0,R.scramb,E7
710,68.0,S,5.0,3.0,scar,3,star,6921.0,R.scramb,E7
711,68.0,S,5.0,4.0,star,,,5111.0,R.scramb,E7
712,68.0,S,6.0,0.0,mail,0,trail,6359.0,R.scramb,E7
713,68.0,S,6.0,1.0,sail,1,tail,6201.0,R.scramb,E7
714,68.0,S,6.0,2.0,trail,2,jail,4855.0,R.scramb,E7
715,68.0,S,6.0,3.0,wail,,,6086.0,R.scramb,E7
716,68.0,S,6.0,4.0,tail,,,4348.0,R.scramb,E7
717,68.0,S,6.0,5.0,jail,,,4942.0,R.scramb,E7
718,68.0,S,7.0,0.0,pie,0,pie,5703.0,R.scramb,E7
719,68.0,S,7.0,1.0,fly,1,fly,5974.0,R.scramb,E7
720,68.0,S,7.0,2.0,tie,2,tie,4583.0,R.scramb,E7
721,68.0,S,7.0,3.0,sky,3,sky,4471.0,R.scramb,E7
722,68.0,S,7.0,4.0,eye,4,eye,6194.0,R.scramb,E7
723,68.0,S,8.0,0.0,doll,0,ball,4865.0,R.scramb,E7
724,68.0,S,8.0,1.0,ball,1,shawl,6986.0,R.scramb,E7
725,68.0,S,8.0,2.0,shawl,2,brawl,4323.0,R.scramb,E7
726,68.0,S,8.0,3.0,hall,3,wall,4666.0,R.scramb,E7
727,68.0,S,8.0,4.0,brawl,,,6082.0,R.scramb,E7
728,68.0,S,8.0,5.0,wall,,,5759.0,R.scramb,E7
729,68.0,S,9.0,0.0,band,0,band,4855.0,R.scramb,E7
730,68.0,S,9.0,1.0,land,1,stand,4823.0,R.scramb,E7
731,68.0,S,9.0,2.0,stand,2,hand,6063.0,R.scramb,E7
732,68.0,S,9.0,3.0,hand,,,5278.0,R.scramb,E7
733,68.0,S,10.0,0.0,boot,0,boot,5443.0,R.scramb,E7
734,68.0,S,10.0,1.0,suit,1,chute,6082.0,R.scramb,E7
735,68.0,S,10.0,2.0,flute,2,brute,4431.0,R.scramb,E7
736,68.0,S,10.0,3.0,loot,,,6242.0,R.scramb,E7
737,68.0,S,10.0,4.0,root,,,5695.0,R.scramb,E7
738,68.0,S,10.0,5.0,brute,,,4526.0,R.scramb,E7
739,68.0,S,11.0,0.0,blouse,0,blouse,4661.0,R.scramb,E7
740,68.0,S,11.0,1.0,house,1,house,4837.0,R.scramb,E7
741,68.0,S,11.0,2.0,mouse,2,mouse,4223.0,R.scramb,E7
742,68.0,S,12.0,0.0,cream,0,cream,4029.0,R.scramb,E7
743,68.0,S,12.0,1.0,team,1,team,4150.0,R.scramb,E7
744,68.0,S,12.0,2.0,steam,2,steam,6121.0,R.scramb,E7
745,68.0,S,13.0,0.0,king,0,king,4897.0,R.scramb,E7
746,68.0,S,13.0,1.0,ring,1,spring,6922.0,R.scramb,E7
747,68.0,S,13.0,2.0,spring,2,wing,5343.0,R.scramb,E7
748,68.0,S,13.0,3.0,string,,,4750.0,R.scramb,E7
749,68.0,S,13.0,4.0,wing,,,7809.0,R.scramb,E7
750,68.0,S,14.0,0.0,deer,0,deer,4706.0,R.scramb,E7
751,68.0,S,14.0,1.0,sphere,1,ear,5821.0,R.scramb,E7
752,68.0,S,14.0,2.0,ear,2,tear,4861.0,R.scramb,E7
753,68.0,S,14.0,3.0,tear,,,4204.0,R.scramb,E7
754,68.0,S,15.0,0.0,bread,0,bread,4717.0,R.scramb,E7
755,68.0,S,15.0,1.0,head,1,head,4040.0,R.scramb,E7
756,68.0,S,15.0,2.0,thread,2,bed,4133.0,R.scramb,E7
757,68.0,S,15.0,3.0,bed,,,4541.0,R.scramb,E7
758,68.0,D,16.0,0.0,shell,0,tree,4972.0,R.scramb,E7
759,68.0,D,16.0,1.0,tree,1,bowl,6284.0,R.scramb,E7
760,68.0,D,16.0,2.0,bowl,2,test,6194.0,R.scramb,E7
761,68.0,D,16.0,3.0,broom,3,ground,7453.0,R.scramb,E7
762,68.0,D,16.0,4.0,test,,,5141.0,R.scramb,E7
763,68.0,D,16.0,5.0,ground,,,3788.0,R.scramb,E7
764,68.0,D,17.0,0.0,path,0,beach,5624.0,R.scramb,E7
765,68.0,D,17.0,1.0,nest,,,4912.0,R.scramb,E7
766,68.0,D,17.0,2.0,square,,,4042.0,R.scramb,E7
767,68.0,D,17.0,3.0,wood,,,5984.0,R.scramb,E7
768,68.0,D,17.0,4.0,beach,,,4840.0,R.scramb,E7
769,68.0,D,18.0,0.0,beard,0,hill,5308.0,R.scramb,E7
770,68.0,D,18.0,1.0,hill,1,line,5488.0,R.scramb,E7
771,68.0,D,18.0,2.0,dirt,,,5413.0,R.scramb,E7
772,68.0,D,18.0,3.0,card,,,5724.0,R.scramb,E7
773,68.0,D,18.0,4.0,line,,,4763.0,R.scramb,E7
774,68.0,D,19.0,0.0,toy,0,watch,4544.0,R.scramb,E7
775,68.0,D,19.0,1.0,wreck,1,wreck,4623.0,R.scramb,E7
776,68.0,D,19.0,2.0,frown,2,frown,5432.0,R.scramb,E7
777,68.0,D,20.0,0.0,coin,0,train,5055.0,R.scramb,E7
778,68.0,D,20.0,1.0,film,1,map,5335.0,R.scramb,E7
779,68.0,D,20.0,2.0,leaf,2,art,5520.0,R.scramb,E7
780,68.0,D,20.0,3.0,train,,,5565.0,R.scramb,E7
781,68.0,D,20.0,4.0,map,,,3819.0,R.scramb,E7
782,68.0,D,20.0,5.0,art,,,5667.0,R.scramb,E7
783,68.0,D,21.0,0.0,chest,0,chest,5824.0,R.scramb,E7
784,68.0,D,21.0,1.0,lane,1,l,6384.0,R.scramb,E7
785,68.0,D,21.0,2.0,hair,2,crown,5896.0,R.scramb,E7
786,68.0,D,21.0,3.0,crown,,,5168.0,R.scramb,E7
787,68.0,D,22.0,0.0,mare,0,mare,3742.0,R.scramb,E7
788,68.0,D,22.0,1.0,bell,1,bell,4141.0,R.scramb,E7
789,68.0,D,22.0,2.0,brain,2,brain,5454.0,R.scramb,E7
790,68.0,D,22.0,3.0,beef,3,beef,7766.0,R.scramb,E7
791,68.0,D,23.0,0.0,rice,0,rice,5003.0,R.scramb,E7
792,68.0,D,23.0,1.0,cat,1,cat,4840.0,R.scramb,E7
793,68.0,D,23.0,2.0,trash,2,trash,4573.0,R.scramb,E7
794,68.0,D,24.0,0.0,spice,0,spice,4720.0,R.scramb,E7
795,68.0,D,24.0,1.0,heat,1,heat,3630.0,R.scramb,E7
796,68.0,D,24.0,2.0,shape,2,pear,5784.0,R.scramb,E7
797,68.0,D,24.0,3.0,pear,3,guest,5432.0,R.scramb,E7
798,68.0,D,24.0,4.0,guest,,,5091.0,R.scramb,E7
799,68.0,D,25.0,0.0,ant,0,ant,4849.0,R.scramb,E7
800,68.0,D,25.0,1.0,air,1,air,5158.0,R.scramb,E7
801,68.0,D,25.0,2.0,ink,2,ink,5272.0,R.scramb,E7
802,68.0,D,25.0,3.0,cloud,3,breath,6835.0,R.scramb,E7
803,68.0,D,25.0,4.0,seat,4,,4606.0,R.scramb,E7
804,68.0,D,25.0,5.0,breath,,,5594.0,R.scramb,E7
805,68.0,D,26.0,0.0,neck,0,neck,4529.0,R.scramb,E7
806,68.0,D,26.0,1.0,town,1,town,5310.0,R.scramb,E7
807,68.0,D,26.0,2.0,hat,2,hat,5529.0,R.scramb,E7
808,68.0,D,26.0,3.0,street,3,street,7462.0,R.scramb,E7
809,68.0,D,27.0,0.0,deck,0,deck,4158.0,R.scramb,E7
810,68.0,D,27.0,1.0,slice,1,slice,4616.0,R.scramb,E7
811,68.0,D,27.0,2.0,rat,2,rat,5321.0,R.scramb,E7
812,70.0,P,0.0,0.0,hood,0,hood,,R.scramb,E7
813,70.0,P,0.0,1.0,wood,1,wood,,R.scramb,E7
814,70.0,P,1.0,0.0,earth,0,bird,,R.scramb,E7
815,70.0,P,1.0,1.0,peach,1,peach,,R.scramb,E7
816,70.0,P,2.0,0.0,bath,0,bath,,R.scramb,E7
817,70.0,P,2.0,1.0,dawn,1,dawn,,R.scramb,E7
818,70.0,P,3.0,0.0,farm,0,home,,R.scramb,E7
819,70.0,P,3.0,1.0,arm,1,arm,,R.scramb,E7
820,70.0,D,4.0,0.0,mare,0,mare,4129.0,R.scramb,E7
821,70.0,D,4.0,1.0,bell,1,,4071.0,R.scramb,E7
822,70.0,D,4.0,2.0,brain,2,cake,4329.0,R.scramb,E7
823,70.0,D,4.0,3.0,beef,3,beef,5623.0,R.scramb,E7
824,70.0,D,5.0,0.0,neck,0,neck,4436.0,R.scramb,E7
825,70.0,D,5.0,1.0,town,1,dress,4359.0,R.scramb,E7
826,70.0,D,5.0,2.0,hat,2,,4484.0,R.scramb,E7
827,70.0,D,5.0,3.0,street,3,street,6243.0,R.scramb,E7
828,70.0,D,6.0,0.0,coin,0,coin,5871.0,R.scramb,E7
829,70.0,D,6.0,1.0,film,1,film,4842.0,R.scramb,E7
830,70.0,D,6.0,2.0,leaf,2,train,5039.0,R.scramb,E7
831,70.0,D,6.0,3.0,train,3,,4836.0,R.scramb,E7
832,70.0,D,6.0,4.0,map,4,bird,4607.0,R.scramb,E7
833,70.0,D,6.0,5.0,art,,,5100.0,R.scramb,E7
834,70.0,D,7.0,0.0,toy,0,toy,4668.0,R.scramb,E7
835,70.0,D,7.0,1.0,wreck,1,,4199.0,R.scramb,E7
836,70.0,D,7.0,2.0,frown,2,wreck,4308.0,R.scramb,E7
837,70.0,D,8.0,0.0,ant,0,ant,4246.0,R.scramb,E7
838,70.0,D,8.0,1.0,air,1,air,4746.0,R.scramb,E7
839,70.0,D,8.0,2.0,ink,2,,4517.0,R.scramb,E7
840,70.0,D,8.0,3.0,cloud,3,heat,5352.0,R.scramb,E7
841,70.0,D,8.0,4.0,seat,4,breath,4226.0,R.scramb,E7
842,70.0,D,8.0,5.0,breath,5,small,3805.0,R.scramb,E7
843,70.0,D,9.0,0.0,deck,0,,4415.0,R.scramb,E7
844,70.0,D,9.0,1.0,slice,1,rat,3823.0,R.scramb,E7
845,70.0,D,9.0,2.0,rat,2,slice,4162.0,R.scramb,E7
846,70.0,D,10.0,0.0,spice,0,spice,4202.0,R.scramb,E7
847,70.0,D,10.0,1.0,heat,1,,4111.0,R.scramb,E7
848,70.0,D,10.0,2.0,shape,2,deck,4506.0,R.scramb,E7
849,70.0,D,10.0,3.0,pear,3,guest,4093.0,R.scramb,E7
850,70.0,D,10.0,4.0,guest,,,4829.0,R.scramb,E7
851,70.0,D,11.0,0.0,shell,0,,5213.0,R.scramb,E7
852,70.0,D,11.0,1.0,tree,1,bake,4517.0,R.scramb,E7
853,70.0,D,11.0,2.0,bowl,2,bowl,5344.0,R.scramb,E7
854,70.0,D,11.0,3.0,broom,3,ground,4968.0,R.scramb,E7
855,70.0,D,11.0,4.0,test,4,,4382.0,R.scramb,E7
856,70.0,D,11.0,5.0,ground,,,4422.0,R.scramb,E7
857,70.0,D,12.0,0.0,path,0,,4144.0,R.scramb,E7
858,70.0,D,12.0,1.0,nest,1,,4440.0,R.scramb,E7
859,70.0,D,12.0,2.0,square,2,,4237.0,R.scramb,E7
860,70.0,D,12.0,3.0,wood,3,beach,4584.0,R.scramb,E7
861,70.0,D,12.0,4.0,beach,,,3992.0,R.scramb,E7
862,70.0,D,13.0,0.0,rice,0,cat,4581.0,R.scramb,E7
863,70.0,D,13.0,1.0,cat,1,trash,4501.0,R.scramb,E7
864,70.0,D,13.0,2.0,trash,,,3933.0,R.scramb,E7
865,70.0,D,14.0,0.0,chest,0,,4557.0,R.scramb,E7
866,70.0,D,14.0,1.0,lane,1,chest,4744.0,R.scramb,E7
867,70.0,D,14.0,2.0,hair,2,hair,5089.0,R.scramb,E7
868,70.0,D,14.0,3.0,crown,3,crown,5413.0,R.scramb,E7
869,70.0,D,15.0,0.0,beard,0,beard,4400.0,R.scramb,E7
870,70.0,D,15.0,1.0,hill,1,,4133.0,R.scramb,E7
871,70.0,D,15.0,2.0,dirt,2,,5541.0,R.scramb,E7
872,70.0,D,15.0,3.0,card,3,cheer,5237.0,R.scramb,E7
873,70.0,D,15.0,4.0,line,4,line,5000.0,R.scramb,E7
874,70.0,S,16.0,0.0,deer,0,cheer,4422.0,R.scramb,E7
875,70.0,S,16.0,1.0,sphere,1,dear,4318.0,R.scramb,E7
876,70.0,S,16.0,2.0,ear,2,tear,6096.0,R.scramb,E7
877,70.0,S,16.0,3.0,tear,,,4768.0,R.scramb,E7
878,70.0,S,17.0,0.0,band,0,band,4111.0,R.scramb,E7
879,70.0,S,17.0,1.0,land,1,land,4704.0,R.scramb,E7
880,70.0,S,17.0,2.0,stand,2,stand,4640.0,R.scramb,E7
881,70.0,S,17.0,3.0,hand,3,hand,4678.0,R.scramb,E7
882,70.0,S,18.0,0.0,bread,0,head,4064.0,R.scramb,E7
883,70.0,S,18.0,1.0,head,1,bread,4608.0,R.scramb,E7
884,70.0,S,18.0,2.0,thread,2,thread,4575.0,R.scramb,E7
885,70.0,S,18.0,3.0,bed,3,bed,4614.0,R.scramb,E7
886,70.0,S,19.0,0.0,doll,0,ball,4662.0,R.scramb,E7
887,70.0,S,19.0,1.0,ball,1,mall,4415.0,R.scramb,E7
888,70.0,S,19.0,2.0,shawl,2,brawl,4007.0,R.scramb,E7
889,70.0,S,19.0,3.0,hall,3,wall,4916.0,R.scramb,E7
890,70.0,S,19.0,4.0,brawl,4,,4878.0,R.scramb,E7
891,70.0,S,19.0,5.0,wall,,,4497.0,R.scramb,E7
892,70.0,S,20.0,0.0,pie,0,pie,4467.0,R.scramb,E7
893,70.0,S,20.0,1.0,fly,1,fly,5286.0,R.scramb,E7
894,70.0,S,20.0,2.0,tie,2,,3916.0,R.scramb,E7
895,70.0,S,20.0,3.0,sky,3,eye,4302.0,R.scramb,E7
896,70.0,S,20.0,4.0,eye,,,4790.0,R.scramb,E7
897,70.0,S,21.0,0.0,cream,0,cream,4078.0,R.scramb,E7
898,70.0,S,21.0,1.0,team,1,team,3956.0,R.scramb,E7
899,70.0,S,21.0,2.0,steam,2,steam,5006.0,R.scramb,E7
900,70.0,S,22.0,0.0,bone,0,bone,4238.0,R.scramb,E7
901,70.0,S,22.0,1.0,phone,1,phone,4137.0,R.scramb,E7
902,70.0,S,22.0,2.0,stone,2,stone,4474.0,R.scramb,E7
903,70.0,S,23.0,0.0,jar,0,,4230.0,R.scramb,E7
904,70.0,S,23.0,1.0,bar,1,,4177.0,R.scramb,E7
905,70.0,S,23.0,2.0,car,2,jar,4217.0,R.scramb,E7
906,70.0,S,23.0,3.0,scar,3,star,6545.0,R.scramb,E7
907,70.0,S,23.0,4.0,star,,,4301.0,R.scramb,E7
908,70.0,S,24.0,0.0,blouse,0,blouse,4036.0,R.scramb,E7
909,70.0,S,24.0,1.0,house,1,house,4392.0,R.scramb,E7
910,70.0,S,24.0,2.0,mouse,2,mouse,4113.0,R.scramb,E7
911,70.0,S,25.0,0.0,boot,0,boot,5033.0,R.scramb,E7
912,70.0,S,25.0,1.0,suit,1,suit,5173.0,R.scramb,E7
913,70.0,S,25.0,2.0,flute,2,,3924.0,R.scramb,E7
914,70.0,S,25.0,3.0,loot,3,loot,3810.0,R.scramb,E7
915,70.0,S,25.0,4.0,root,4,brute,5304.0,R.scramb,E7
916,70.0,S,25.0,5.0,brute,,,4472.0,R.scramb,E7
917,70.0,S,26.0,0.0,king,0,king,4148.0,R.scramb,E7
918,70.0,S,26.0,1.0,ring,1,ring,4623.0,R.scramb,E7
919,70.0,S,26.0,2.0,spring,2,,5751.0,R.scramb,E7
920,70.0,S,26.0,3.0,string,3,sing,4353.0,R.scramb,E7
921,70.0,S,26.0,4.0,wing,4,,5132.0,R.scramb,E7
922,70.0,S,27.0,0.0,mail,0,sail,4704.0,R.scramb,E7
923,70.0,S,27.0,1.0,sail,1,mail,5599.0,R.scramb,E7
924,70.0,S,27.0,2.0,trail,2,tail,4340.0,R.scramb,E7
925,70.0,S,27.0,3.0,wail,3,,4380.0,R.scramb,E7
926,70.0,S,27.0,4.0,tail,4,jail,4260.0,R.scramb,E7
927,70.0,S,27.0,5.0,jail,,,5061.0,R.scramb,E7
928,72.0,P,0.0,0.0,farm,0,farm,,R.scramb,E7
929,72.0,P,0.0,1.0,arm,1,arm,,R.scramb,E7
930,72.0,P,1.0,0.0,bath,0,bath,,R.scramb,E7
931,72.0,P,1.0,1.0,dawn,1,dawn,,R.scramb,E7
932,72.0,P,2.0,0.0,hood,0,hood,,R.scramb,E7
933,72.0,P,2.0,1.0,wood,1,wood,,R.scramb,E7
934,72.0,P,3.0,0.0,earth,0,earth,,R.scramb,E7
935,72.0,P,3.0,1.0,peach,1,peach,,R.scramb,E7
936,72.0,S,4.0,0.0,mail,0,mail,7839.0,R.scramb,E7
937,72.0,S,4.0,1.0,sail,1,sail,7180.0,R.scramb,E7
938,72.0,S,4.0,2.0,trail,2,tail,7531.0,R.scramb,E7
939,72.0,S,4.0,3.0,wail,3,jail,8030.0,R.scramb,E7
940,72.0,S,4.0,4.0,tail,4,,6243.0,R.scramb,E7
941,72.0,S,4.0,5.0,jail,,,6682.0,R.scramb,E7
942,72.0,S,5.0,0.0,bread,0,bread,5677.0,R.scramb,E7
943,72.0,S,5.0,1.0,head,1,head,4506.0,R.scramb,E7
944,72.0,S,5.0,2.0,thread,2,,6047.0,R.scramb,E7
945,72.0,S,5.0,3.0,bed,3,,5270.0,R.scramb,E7
946,72.0,S,6.0,0.0,jar,0,bar,6913.0,R.scramb,E7
947,72.0,S,6.0,1.0,bar,1,jar,4396.0,R.scramb,E7
948,72.0,S,6.0,2.0,car,2,car,4821.0,R.scramb,E7
949,72.0,S,6.0,3.0,scar,3,star,8742.0,R.scramb,E7
950,72.0,S,6.0,4.0,star,,,5198.0,R.scramb,E7
951,72.0,S,7.0,0.0,blouse,0,blouse,4804.0,R.scramb,E7
952,72.0,S,7.0,1.0,house,1,house,4118.0,R.scramb,E7
953,72.0,S,7.0,2.0,mouse,2,mouse,5347.0,R.scramb,E7
954,72.0,S,8.0,0.0,cream,0,cream,6227.0,R.scramb,E7
955,72.0,S,8.0,1.0,team,1,team,4426.0,R.scramb,E7
956,72.0,S,8.0,2.0,steam,2,steam,7362.0,R.scramb,E7
957,72.0,S,9.0,0.0,pie,0,pie,4863.0,R.scramb,E7
958,72.0,S,9.0,1.0,fly,1,fly,6286.0,R.scramb,E7
959,72.0,S,9.0,2.0,tie,2,tie,6275.0,R.scramb,E7
960,72.0,S,9.0,3.0,sky,3,sky,7991.0,R.scramb,E7
961,72.0,S,9.0,4.0,eye,4,eye,6326.0,R.scramb,E7
962,72.0,S,10.0,0.0,boot,0,boot,6720.0,R.scramb,E7
963,72.0,S,10.0,1.0,suit,1,suit,6036.0,R.scramb,E7
964,72.0,S,10.0,2.0,flute,2,flute,8939.0,R.scramb,E7
965,72.0,S,10.0,3.0,loot,3,,5547.0,R.scramb,E7
966,72.0,S,10.0,4.0,root,4,root,7381.0,R.scramb,E7
967,72.0,S,10.0,5.0,brute,,,6285.0,R.scramb,E7
968,72.0,S,11.0,0.0,bone,0,bone,5922.0,R.scramb,E7
969,72.0,S,11.0,1.0,phone,1,phone,6102.0,R.scramb,E7
970,72.0,S,11.0,2.0,stone,2,stone,4722.0,R.scramb,E7
971,72.0,S,12.0,0.0,band,0,band,4382.0,R.scramb,E7
972,72.0,S,12.0,1.0,land,1,land,5705.0,R.scramb,E7
973,72.0,S,12.0,2.0,stand,2,stand,5797.0,R.scramb,E7
974,72.0,S,12.0,3.0,hand,3,hand,7694.0,R.scramb,E7
975,72.0,S,13.0,0.0,doll,0,doll,4821.0,R.scramb,E7
976,72.0,S,13.0,1.0,ball,1,brawl,8838.0,R.scramb,E7
977,72.0,S,13.0,2.0,shawl,2,wall,5051.0,R.scramb,E7
978,72.0,S,13.0,3.0,hall,,,8355.0,R.scramb,E7
979,72.0,S,13.0,4.0,brawl,,,7571.0,R.scramb,E7
980,72.0,S,13.0,5.0,wall,,,5011.0,R.scramb,E7
981,72.0,S,14.0,0.0,king,0,king,5251.0,R.scramb,E7
982,72.0,S,14.0,1.0,ring,1,ring,7482.0,R.scramb,E7
983,72.0,S,14.0,2.0,spring,2,fling,5663.0,R.scramb,E7
984,72.0,S,14.0,3.0,string,3,wing,4701.0,R.scramb,E7
985,72.0,S,14.0,4.0,wing,,,7107.0,R.scramb,E7
986,72.0,S,15.0,0.0,deer,0,deer,6253.0,R.scramb,E7
987,72.0,S,15.0,1.0,sphere,1,sphere,5643.0,R.scramb,E7
988,72.0,S,15.0,2.0,ear,2,tear,6386.0,R.scramb,E7
989,72.0,S,15.0,3.0,tear,3,,5636.0,R.scramb,E7
990,72.0,D,16.0,0.0,shell,0,,5471.0,R.scramb,E7
991,72.0,D,16.0,1.0,tree,1,,5670.0,R.scramb,E7
992,72.0,D,16.0,2.0,bowl,2,leg,5797.0,R.scramb,E7
993,72.0,D,16.0,3.0,broom,3,,8412.0,R.scramb,E7
994,72.0,D,16.0,4.0,test,4,ground,8075.0,R.scramb,E7
995,72.0,D,16.0,5.0,ground,,,5654.0,R.scramb,E7
996,72.0,D,17.0,0.0,deck,0,deck,4640.0,R.scramb,E7
997,72.0,D,17.0,1.0,slice,1,slice,5721.0,R.scramb,E7
998,72.0,D,17.0,2.0,rat,2,rat,5236.0,R.scramb,E7
999,72.0,D,18.0,0.0,mare,0,mare,4303.0,R.scramb,E7
1000,72.0,D,18.0,1.0,bell,1,,3429.0,R.scramb,E7
1001,72.0,D,18.0,2.0,brain,2,,6000.0,R.scramb,E7
1002,72.0,D,18.0,3.0,beef,3,beef,7720.0,R.scramb,E7
1003,72.0,D,19.0,0.0,neck,0,neck,6250.0,R.scramb,E7
1004,72.0,D,19.0,1.0,town,1,town,4929.0,R.scramb,E7
1005,72.0,D,19.0,2.0,hat,2,,5950.0,R.scramb,E7
1006,72.0,D,19.0,3.0,street,3,street,9368.0,R.scramb,E7
1007,72.0,D,20.0,0.0,rice,0,dress,4659.0,R.scramb,E7
1008,72.0,D,20.0,1.0,cat,1,cat,4507.0,R.scramb,E7
1009,72.0,D,20.0,2.0,trash,2,trash,3936.0,R.scramb,E7
1010,72.0,D,21.0,0.0,toy,0,toy,4583.0,R.scramb,E7
1011,72.0,D,21.0,1.0,wreck,1,wreck,5915.0,R.scramb,E7
1012,72.0,D,21.0,2.0,frown,2,frown,4791.0,R.scramb,E7
1013,72.0,D,22.0,0.0,chest,0,chest,5361.0,R.scramb,E7
1014,72.0,D,22.0,1.0,lane,1,lane,4698.0,R.scramb,E7
1015,72.0,D,22.0,2.0,hair,2,hair,5409.0,R.scramb,E7
1016,72.0,D,22.0,3.0,crown,3,crown,5377.0,R.scramb,E7
1017,72.0,D,23.0,0.0,coin,0,,7827.0,R.scramb,E7
1018,72.0,D,23.0,1.0,film,1,,4866.0,R.scramb,E7
1019,72.0,D,23.0,2.0,leaf,2,leaf,7330.0,R.scramb,E7
1020,72.0,D,23.0,3.0,train,3,train,5699.0,R.scramb,E7
1021,72.0,D,23.0,4.0,map,4,art,6185.0,R.scramb,E7
1022,72.0,D,23.0,5.0,art,,,6450.0,R.scramb,E7
1023,72.0,D,24.0,0.0,beard,0,beard,4831.0,R.scramb,E7
1024,72.0,D,24.0,1.0,hill,1,hill,5464.0,R.scramb,E7
1025,72.0,D,24.0,2.0,dirt,2,dirt,5238.0,R.scramb,E7
1026,72.0,D,24.0,3.0,card,3,,7590.0,R.scramb,E7
1027,72.0,D,24.0,4.0,line,,,6397.0,R.scramb,E7
1028,72.0,D,25.0,0.0,path,0,,4626.0,R.scramb,E7
1029,72.0,D,25.0,1.0,nest,1,,5036.0,R.scramb,E7
1030,72.0,D,25.0,2.0,square,2,,4772.0,R.scramb,E7
1031,72.0,D,25.0,3.0,wood,3,,6815.0,R.scramb,E7
1032,72.0,D,25.0,4.0,beach,4,,4957.0,R.scramb,E7
1033,72.0,D,26.0,0.0,spice,0,,4138.0,R.scramb,E7
1034,72.0,D,26.0,1.0,heat,1,,3423.0,R.scramb,E7
1035,72.0,D,26.0,2.0,shape,2,,4681.0,R.scramb,E7
1036,72.0,D,26.0,3.0,pear,3,,5384.0,R.scramb,E7
1037,72.0,D,26.0,4.0,guest,4,,4817.0,R.scramb,E7
1038,72.0,D,27.0,0.0,ant,0,ant,5040.0,R.scramb,E7
1039,72.0,D,27.0,1.0,air,1,sky,4801.0,R.scramb,E7
1040,72.0,D,27.0,2.0,ink,2,,5842.0,R.scramb,E7
1041,72.0,D,27.0,3.0,cloud,3,,8473.0,R.scramb,E7
1042,72.0,D,27.0,4.0,seat,4,breath,7277.0,R.scramb,E7
1043,72.0,D,27.0,5.0,breath,,,5681.0,R.scramb,E7
1044,86.0,P,0.0,0.0,earth,0,earth,,R.scramb,E7
1045,86.0,P,0.0,1.0,peach,1,peach,,R.scramb,E7
1046,86.0,P,1.0,0.0,farm,0,farm,,R.scramb,E7
1047,86.0,P,1.0,1.0,arm,1,arm,,R.scramb,E7
1048,86.0,P,2.0,0.0,hood,0,,,R.scramb,E7
1049,86.0,P,2.0,1.0,wood,1,wood,,R.scramb,E7
1050,86.0,P,3.0,0.0,bath,0,bath,,R.scramb,E7
1051,86.0,P,3.0,1.0,dawn,1,dawn,,R.scramb,E7
1052,86.0,D,4.0,0.0,coin,0,coin,6210.0,R.scramb,E7
1053,86.0,D,4.0,1.0,film,1,,5233.0,R.scramb,E7
1054,86.0,D,4.0,2.0,leaf,2,,7105.0,R.scramb,E7
1055,86.0,D,4.0,3.0,train,3,,5845.0,R.scramb,E7
1056,86.0,D,4.0,4.0,map,4,art,5019.0,R.scramb,E7
1057,86.0,D,4.0,5.0,art,,,8076.0,R.scramb,E7
1058,86.0,D,5.0,0.0,spice,0,,5680.0,R.scramb,E7
1059,86.0,D,5.0,1.0,heat,1,scent,5213.0,R.scramb,E7
1060,86.0,D,5.0,2.0,shape,2,shape,5990.0,R.scramb,E7
1061,86.0,D,5.0,3.0,pear,3,pair,5590.0,R.scramb,E7
1062,86.0,D,5.0,4.0,guest,,,6487.0,R.scramb,E7
1063,86.0,D,6.0,0.0,deck,0,deck,5731.0,R.scramb,E7
1064,86.0,D,6.0,1.0,slice,1,,5223.0,R.scramb,E7
1065,86.0,D,6.0,2.0,rat,2,rat,6623.0,R.scramb,E7
1066,86.0,D,7.0,0.0,toy,0,toy,5691.0,R.scramb,E7
1067,86.0,D,7.0,1.0,wreck,1,,6112.0,R.scramb,E7
1068,86.0,D,7.0,2.0,frown,2,frown,5299.0,R.scramb,E7
1069,86.0,D,8.0,0.0,chest,0,toy,5510.0,R.scramb,E7
1070,86.0,D,8.0,1.0,lane,1,,7067.0,R.scramb,E7
1071,86.0,D,8.0,2.0,hair,2,hair,7032.0,R.scramb,E7
1072,86.0,D,8.0,3.0,crown,3,crown,6046.0,R.scramb,E7
1073,86.0,D,9.0,0.0,beard,0,beard,5860.0,R.scramb,E7
1074,86.0,D,9.0,1.0,hill,1,,6089.0,R.scramb,E7
1075,86.0,D,9.0,2.0,dirt,2,dirt,5373.0,R.scramb,E7
1076,86.0,D,9.0,3.0,card,3,,6799.0,R.scramb,E7
1077,86.0,D,9.0,4.0,line,,,8071.0,R.scramb,E7
1078,86.0,D,10.0,0.0,mare,0,mare,5020.0,R.scramb,E7
1079,86.0,D,10.0,1.0,bell,1,card,4268.0,R.scramb,E7
1080,86.0,D,10.0,2.0,brain,2,beef,6188.0,R.scramb,E7
1081,86.0,D,10.0,3.0,beef,,,6285.0,R.scramb,E7
1082,86.0,D,11.0,0.0,shell,0,,6005.0,R.scramb,E7
1083,86.0,D,11.0,1.0,tree,1,,7669.0,R.scramb,E7
1084,86.0,D,11.0,2.0,bowl,2,bake,7545.0,R.scramb,E7
1085,86.0,D,11.0,3.0,broom,3,ground,6778.0,R.scramb,E7
1086,86.0,D,11.0,4.0,test,,,5587.0,R.scramb,E7
1087,86.0,D,11.0,5.0,ground,,,5436.0,R.scramb,E7
1088,86.0,D,12.0,0.0,rice,0,cat,7869.0,R.scramb,E7
1089,86.0,D,12.0,1.0,cat,1,trash,5408.0,R.scramb,E7
1090,86.0,D,12.0,2.0,trash,2,,5352.0,R.scramb,E7
1091,86.0,D,13.0,0.0,neck,0,neck,5164.0,R.scramb,E7
1092,86.0,D,13.0,1.0,town,1,,5823.0,R.scramb,E7
1093,86.0,D,13.0,2.0,hat,2,,6319.0,R.scramb,E7
1094,86.0,D,13.0,3.0,street,3,street,7971.0,R.scramb,E7
1095,86.0,D,14.0,0.0,path,0,,6679.0,R.scramb,E7
1096,86.0,D,14.0,1.0,nest,1,nest,5733.0,R.scramb,E7
1097,86.0,D,14.0,2.0,square,2,,5272.0,R.scramb,E7
1098,86.0,D,14.0,3.0,wood,3,beach,5894.0,R.scramb,E7
1099,86.0,D,14.0,4.0,beach,,,6315.0,R.scramb,E7
1100,86.0,D,15.0,0.0,ant,0,,6155.0,R.scramb,E7
1101,86.0,D,15.0,1.0,air,1,air,5973.0,R.scramb,E7
1102,86.0,D,15.0,2.0,ink,2,ink,7990.0,R.scramb,E7
1103,86.0,D,15.0,3.0,cloud,3,,6493.0,R.scramb,E7
1104,86.0,D,15.0,4.0,seat,4,breath,4842.0,R.scramb,E7
1105,86.0,D,15.0,5.0,breath,,,5945.0,R.scramb,E7
1106,86.0,S,16.0,0.0,boot,0,,6679.0,R.scramb,E7
1107,86.0,S,16.0,1.0,suit,1,flute,7181.0,R.scramb,E7
1108,86.0,S,16.0,2.0,flute,2,root,5389.0,R.scramb,E7
1109,86.0,S,16.0,3.0,loot,3,loot,4807.0,R.scramb,E7
1110,86.0,S,16.0,4.0,root,4,,5808.0,R.scramb,E7
1111,86.0,S,16.0,5.0,brute,,,6392.0,R.scramb,E7
1112,86.0,S,17.0,0.0,deer,0,deer,5935.0,R.scramb,E7
1113,86.0,S,17.0,1.0,sphere,1,ear,5555.0,R.scramb,E7
1114,86.0,S,17.0,2.0,ear,2,tear,5750.0,R.scramb,E7
1115,86.0,S,17.0,3.0,tear,,,5984.0,R.scramb,E7
1116,86.0,S,18.0,0.0,bone,0,bone,5731.0,R.scramb,E7
1117,86.0,S,18.0,1.0,phone,1,,6295.0,R.scramb,E7
1118,86.0,S,18.0,2.0,stone,2,stone,5324.0,R.scramb,E7
1119,86.0,S,19.0,0.0,mail,0,,7715.0,R.scramb,E7
1120,86.0,S,19.0,1.0,sail,1,,6493.0,R.scramb,E7
1121,86.0,S,19.0,2.0,trail,2,trail,5321.0,R.scramb,E7
1122,86.0,S,19.0,3.0,wail,3,jail,5941.0,R.scramb,E7
1123,86.0,S,19.0,4.0,tail,4,,5849.0,R.scramb,E7
1124,86.0,S,19.0,5.0,jail,,,5470.0,R.scramb,E7
1125,86.0,S,20.0,0.0,blouse,0,blouse,6369.0,R.scramb,E7
1126,86.0,S,20.0,1.0,house,1,,5074.0,R.scramb,E7
1127,86.0,S,20.0,2.0,mouse,2,mouse,5273.0,R.scramb,E7
1128,86.0,S,21.0,0.0,pie,0,,4840.0,R.scramb,E7
1129,86.0,S,21.0,1.0,fly,1,fly,6761.0,R.scramb,E7
1130,86.0,S,21.0,2.0,tie,2,tie,4922.0,R.scramb,E7
1131,86.0,S,21.0,3.0,sky,3,eye,4678.0,R.scramb,E7
1132,86.0,S,21.0,4.0,eye,,,5829.0,R.scramb,E7
1133,86.0,S,22.0,0.0,jar,0,pie,5859.0,R.scramb,E7
1134,86.0,S,22.0,1.0,bar,1,bar,4514.0,R.scramb,E7
1135,86.0,S,22.0,2.0,car,2,,4719.0,R.scramb,E7
1136,86.0,S,22.0,3.0,scar,3,star,5532.0,R.scramb,E7
1137,86.0,S,22.0,4.0,star,,,6008.0,R.scramb,E7
1138,86.0,S,23.0,0.0,bread,0,bread,4420.0,R.scramb,E7
1139,86.0,S,23.0,1.0,head,1,thread,4949.0,R.scramb,E7
1140,86.0,S,23.0,2.0,thread,2,bed,5168.0,R.scramb,E7
1141,86.0,S,23.0,3.0,bed,,,5602.0,R.scramb,E7
1142,86.0,S,24.0,0.0,doll,0,doll,4927.0,R.scramb,E7
1143,86.0,S,24.0,1.0,ball,1,,5660.0,R.scramb,E7
1144,86.0,S,24.0,2.0,shawl,2,brawl,4090.0,R.scramb,E7
1145,86.0,S,24.0,3.0,hall,3,wall,6305.0,R.scramb,E7
1146,86.0,S,24.0,4.0,brawl,,,7293.0,R.scramb,E7
1147,86.0,S,24.0,5.0,wall,,,4920.0,R.scramb,E7
1148,86.0,S,25.0,0.0,cream,0,cream,5473.0,R.scramb,E7
1149,86.0,S,25.0,1.0,team,1,,4277.0,R.scramb,E7
1150,86.0,S,25.0,2.0,steam,2,steam,5620.0,R.scramb,E7
1151,86.0,S,26.0,0.0,king,0,,5485.0,R.scramb,E7
1152,86.0,S,26.0,1.0,ring,1,,6522.0,R.scramb,E7
1153,86.0,S,26.0,2.0,spring,2,spring,5694.0,R.scramb,E7
1154,86.0,S,26.0,3.0,string,3,wing,4610.0,R.scramb,E7
1155,86.0,S,26.0,4.0,wing,,,5052.0,R.scramb,E7
1156,86.0,S,27.0,0.0,band,0,,4415.0,R.scramb,E7
1157,86.0,S,27.0,1.0,land,1,land,4791.0,R.scramb,E7
1158,86.0,S,27.0,2.0,stand,2,hand,5545.0,R.scramb,E7
1159,86.0,S,27.0,3.0,hand,,,6300.0,R.scramb,E7
1160,88.0,P,0.0,0.0,earth,0,earth,,R.scramb,E7
1161,88.0,P,0.0,1.0,peach,1,peach,,R.scramb,E7
1162,88.0,P,1.0,0.0,bath,0,bath,,R.scramb,E7
1163,88.0,P,1.0,1.0,dawn,1,dawn,,R.scramb,E7
1164,88.0,P,2.0,0.0,hood,0,,,R.scramb,E7
1165,88.0,P,2.0,1.0,wood,1,wood,,R.scramb,E7
1166,88.0,P,3.0,0.0,farm,0,,,R.scramb,E7
1167,88.0,P,3.0,1.0,arm,1,arm,,R.scramb,E7
1168,88.0,S,4.0,0.0,boot,0,boot,7133.0,R.scramb,E7
1169,88.0,S,4.0,1.0,suit,1,suit,7647.0,R.scramb,E7
1170,88.0,S,4.0,2.0,flute,2,,6092.0,R.scramb,E7
1171,88.0,S,4.0,3.0,loot,3,loot,6689.0,R.scramb,E7
1172,88.0,S,4.0,4.0,root,4,brute,7964.0,R.scramb,E7
1173,88.0,S,4.0,5.0,brute,,,6101.0,R.scramb,E7
1174,88.0,S,5.0,0.0,pie,0,pie,7050.0,R.scramb,E7
1175,88.0,S,5.0,1.0,fly,1,fly,8416.0,R.scramb,E7
1176,88.0,S,5.0,2.0,tie,2,,5493.0,R.scramb,E7
1177,88.0,S,5.0,3.0,sky,3,,7699.0,R.scramb,E7
1178,88.0,S,5.0,4.0,eye,4,eye,6502.0,R.scramb,E7
1179,88.0,S,6.0,0.0,band,0,band,5115.0,R.scramb,E7
1180,88.0,S,6.0,1.0,land,1,,6295.0,R.scramb,E7
1181,88.0,S,6.0,2.0,stand,2,,5748.0,R.scramb,E7
1182,88.0,S,6.0,3.0,hand,3,hand,6894.0,R.scramb,E7
1183,88.0,S,7.0,0.0,cream,0,cream,7079.0,R.scramb,E7
1184,88.0,S,7.0,1.0,team,1,team,5524.0,R.scramb,E7
1185,88.0,S,7.0,2.0,steam,2,steam,7239.0,R.scramb,E7
1186,88.0,S,8.0,0.0,deer,0,,6717.0,R.scramb,E7
1187,88.0,S,8.0,1.0,sphere,1,,8329.0,R.scramb,E7
1188,88.0,S,8.0,2.0,ear,2,ear,7138.0,R.scramb,E7
1189,88.0,S,8.0,3.0,tear,3,tear,6171.0,R.scramb,E7
1190,88.0,S,9.0,0.0,doll,0,,6138.0,R.scramb,E7
1191,88.0,S,9.0,1.0,ball,1,shawl,7109.0,R.scramb,E7
1192,88.0,S,9.0,2.0,shawl,2,hall,5952.0,R.scramb,E7
1193,88.0,S,9.0,3.0,hall,3,brawl,7922.0,R.scramb,E7
1194,88.0,S,9.0,4.0,brawl,4,wall,8291.0,R.scramb,E7
1195,88.0,S,9.0,5.0,wall,,,6758.0,R.scramb,E7
1196,88.0,S,10.0,0.0,bone,0,bone,6751.0,R.scramb,E7
1197,88.0,S,10.0,1.0,phone,1,,6626.0,R.scramb,E7
1198,88.0,S,10.0,2.0,stone,2,stone,6673.0,R.scramb,E7
1199,88.0,S,11.0,0.0,jar,0,jar,5977.0,R.scramb,E7
1200,88.0,S,11.0,1.0,bar,1,,5411.0,R.scramb,E7
1201,88.0,S,11.0,2.0,car,2,,6333.0,R.scramb,E7
1202,88.0,S,11.0,3.0,scar,3,scar,8448.0,R.scramb,E7
1203,88.0,S,11.0,4.0,star,4,,7724.0,R.scramb,E7
1204,88.0,S,12.0,0.0,mail,0,,8727.0,R.scramb,E7
1205,88.0,S,12.0,1.0,sail,1,,7999.0,R.scramb,E7
1206,88.0,S,12.0,2.0,trail,2,,6550.0,R.scramb,E7
1207,88.0,S,12.0,3.0,wail,3,,7736.0,R.scramb,E7
1208,88.0,S,12.0,4.0,tail,4,,6704.0,R.scramb,E7
1209,88.0,S,12.0,5.0,jail,5,jail,7012.0,R.scramb,E7
1210,88.0,S,13.0,0.0,bread,0,bread,5932.0,R.scramb,E7
1211,88.0,S,13.0,1.0,head,1,head,5672.0,R.scramb,E7
1212,88.0,S,13.0,2.0,thread,2,,6039.0,R.scramb,E7
1213,88.0,S,13.0,3.0,bed,3,bed,6308.0,R.scramb,E7
1214,88.0,S,14.0,0.0,blouse,0,blouse,5917.0,R.scramb,E7
1215,88.0,S,14.0,1.0,house,1,house,5586.0,R.scramb,E7
1216,88.0,S,14.0,2.0,mouse,2,mouse,7227.0,R.scramb,E7
1217,88.0,S,15.0,0.0,king,0,king,5876.0,R.scramb,E7
1218,88.0,S,15.0,1.0,ring,1,spring,8380.0,R.scramb,E7
1219,88.0,S,15.0,2.0,spring,2,,7139.0,R.scramb,E7
1220,88.0,S,15.0,3.0,string,3,wing,5661.0,R.scramb,E7
1221,88.0,S,15.0,4.0,wing,,,7338.0,R.scramb,E7
1222,88.0,D,16.0,0.0,beard,0,,9079.0,R.scramb,E7
1223,88.0,D,16.0,1.0,hill,1,,5945.0,R.scramb,E7
1224,88.0,D,16.0,2.0,dirt,2,,5756.0,R.scramb,E7
1225,88.0,D,16.0,3.0,card,3,,7173.0,R.scramb,E7
1226,88.0,D,16.0,4.0,line,4,line,7990.0,R.scramb,E7
1227,88.0,D,17.0,0.0,coin,0,coin,8145.0,R.scramb,E7
1228,88.0,D,17.0,1.0,film,1,film,6587.0,R.scramb,E7
1229,88.0,D,17.0,2.0,leaf,2,,7348.0,R.scramb,E7
1230,88.0,D,17.0,3.0,train,3,,6421.0,R.scramb,E7
1231,88.0,D,17.0,4.0,map,4,,7443.0,R.scramb,E7
1232,88.0,D,17.0,5.0,art,5,art,7674.0,R.scramb,E7
1233,88.0,D,18.0,0.0,shell,0,,6218.0,R.scramb,E7
1234,88.0,D,18.0,1.0,tree,1,,6906.0,R.scramb,E7
1235,88.0,D,18.0,2.0,bowl,2,,8141.0,R.scramb,E7
1236,88.0,D,18.0,3.0,broom,3,test,6765.0,R.scramb,E7
1237,88.0,D,18.0,4.0,test,4,ground,6503.0,R.scramb,E7
1238,88.0,D,18.0,5.0,ground,,,6106.0,R.scramb,E7
1239,88.0,D,19.0,0.0,mare,0,,5651.0,R.scramb,E7
1240,88.0,D,19.0,1.0,bell,1,,5492.0,R.scramb,E7
1241,88.0,D,19.0,2.0,brain,2,,7224.0,R.scramb,E7
1242,88.0,D,19.0,3.0,beef,3,beef,8319.0,R.scramb,E7
1243,88.0,D,20.0,0.0,chest,0,,7947.0,R.scramb,E7
1244,88.0,D,20.0,1.0,lane,1,,8053.0,R.scramb,E7
1245,88.0,D,20.0,2.0,hair,2,,6865.0,R.scramb,E7
1246,88.0,D,20.0,3.0,crown,3,crown,7886.0,R.scramb,E7
1247,88.0,D,21.0,0.0,toy,0,toy,7573.0,R.scramb,E7
1248,88.0,D,21.0,1.0,wreck,1,wreck,6589.0,R.scramb,E7
1249,88.0,D,21.0,2.0,frown,2,frown,6998.0,R.scramb,E7
1250,88.0,D,22.0,0.0,path,0,,5596.0,R.scramb,E7
1251,88.0,D,22.0,1.0,nest,1,,5358.0,R.scramb,E7
1252,88.0,D,22.0,2.0,square,2,,5256.0,R.scramb,E7
1253,88.0,D,22.0,3.0,wood,3,,6862.0,R.scramb,E7
1254,88.0,D,22.0,4.0,beach,4,beach,7356.0,R.scramb,E7
1255,88.0,D,23.0,0.0,neck,0,,6765.0,R.scramb,E7
1256,88.0,D,23.0,1.0,town,1,,6382.0,R.scramb,E7
1257,88.0,D,23.0,2.0,hat,2,,6840.0,R.scramb,E7
1258,88.0,D,23.0,3.0,street,3,street,8157.0,R.scramb,E7
1259,88.0,D,24.0,0.0,ant,0,,7267.0,R.scramb,E7
1260,88.0,D,24.0,1.0,air,1,,6158.0,R.scramb,E7
1261,88.0,D,24.0,2.0,ink,2,,6433.0,R.scramb,E7
1262,88.0,D,24.0,3.0,cloud,3,,7687.0,R.scramb,E7
1263,88.0,D,24.0,4.0,seat,4,,6659.0,R.scramb,E7
1264,88.0,D,24.0,5.0,breath,5,breath,7561.0,R.scramb,E7
1265,88.0,D,25.0,0.0,spice,0,,6497.0,R.scramb,E7
1266,88.0,D,25.0,1.0,heat,1,,6862.0,R.scramb,E7
1267,88.0,D,25.0,2.0,shape,2,,7947.0,R.scramb,E7
1268,88.0,D,25.0,3.0,pear,3,,6027.0,R.scramb,E7
1269,88.0,D,25.0,4.0,guest,4,guest,6082.0,R.scramb,E7
1270,88.0,D,26.0,0.0,deck,0,,6442.0,R.scramb,E7
1271,88.0,D,26.0,1.0,slice,1,,7505.0,R.scramb,E7
1272,88.0,D,26.0,2.0,rat,2,rat,5939.0,R.scramb,E7
1273,88.0,D,27.0,0.0,rice,0,,7937.0,R.scramb,E7
1274,88.0,D,27.0,1.0,cat,1,,6043.0,R.scramb,E7
1275,88.0,D,27.0,2.0,trash,2,trash,6026.0,R.scramb,E7
1276,92.0,P,0.0,0.0,hood,0,hood,,R.scramb,E7
1277,92.0,P,0.0,1.0,wood,1,wood,,R.scramb,E7
1278,92.0,P,1.0,0.0,earth,0,earth,,R.scramb,E7
1279,92.0,P,1.0,1.0,peach,1,peach,,R.scramb,E7
1280,92.0,P,2.0,0.0,farm,0,farm,,R.scramb,E7
1281,92.0,P,2.0,1.0,arm,1,arm,,R.scramb,E7
1282,92.0,P,3.0,0.0,bath,0,bath,,R.scramb,E7
1283,92.0,P,3.0,1.0,dawn,1,dawn,,R.scramb,E7
1284,92.0,D,4.0,0.0,ant,0,ant,6218.0,R.scramb,E7
1285,92.0,D,4.0,1.0,air,1,,5970.0,R.scramb,E7
1286,92.0,D,4.0,2.0,ink,2,,6797.0,R.scramb,E7
1287,92.0,D,4.0,3.0,cloud,3,cloud,7971.0,R.scramb,E7
1288,92.0,D,4.0,4.0,seat,4,seat,7243.0,R.scramb,E7
1289,92.0,D,4.0,5.0,breath,5,breath,5889.0,R.scramb,E7
1290,92.0,D,5.0,0.0,path,0,path,4986.0,R.scramb,E7
1291,92.0,D,5.0,1.0,nest,1,nest,5355.0,R.scramb,E7
1292,92.0,D,5.0,2.0,square,2,,4502.0,R.scramb,E7
1293,92.0,D,5.0,3.0,wood,3,wood,6317.0,R.scramb,E7
1294,92.0,D,5.0,4.0,beach,4,beach,4537.0,R.scramb,E7
1295,92.0,D,6.0,0.0,neck,0,neck,6041.0,R.scramb,E7
1296,92.0,D,6.0,1.0,town,1,,5023.0,R.scramb,E7
1297,92.0,D,6.0,2.0,hat,2,hat,5607.0,R.scramb,E7
1298,92.0,D,6.0,3.0,street,3,street,7177.0,R.scramb,E7
1299,92.0,D,7.0,0.0,rice,0,rice,6072.0,R.scramb,E7
1300,92.0,D,7.0,1.0,cat,1,cat,5022.0,R.scramb,E7
1301,92.0,D,7.0,2.0,trash,2,trash,4373.0,R.scramb,E7
1302,92.0,D,8.0,0.0,coin,0,film,6712.0,R.scramb,E7
1303,92.0,D,8.0,1.0,film,1,coin,5292.0,R.scramb,E7
1304,92.0,D,8.0,2.0,leaf,2,leaf,5521.0,R.scramb,E7
1305,92.0,D,8.0,3.0,train,3,train,5948.0,R.scramb,E7
1306,92.0,D,8.0,4.0,map,4,map,5055.0,R.scramb,E7
1307,92.0,D,8.0,5.0,art,5,art,5742.0,R.scramb,E7
1308,92.0,D,9.0,0.0,shell,0,shell,5447.0,R.scramb,E7
1309,92.0,D,9.0,1.0,tree,1,tree,5870.0,R.scramb,E7
1310,92.0,D,9.0,2.0,bowl,2,,5813.0,R.scramb,E7
1311,92.0,D,9.0,3.0,broom,3,,7317.0,R.scramb,E7
1312,92.0,D,9.0,4.0,test,4,,5559.0,R.scramb,E7
1313,92.0,D,9.0,5.0,ground,5,ground,5817.0,R.scramb,E7
1314,92.0,D,10.0,0.0,deck,0,deck,5011.0,R.scramb,E7
1315,92.0,D,10.0,1.0,slice,1,slice,4660.0,R.scramb,E7
1316,92.0,D,10.0,2.0,rat,2,rat,5667.0,R.scramb,E7
1317,92.0,D,11.0,0.0,spice,0,spice,5591.0,R.scramb,E7
1318,92.0,D,11.0,1.0,heat,1,heat,5279.0,R.scramb,E7
1319,92.0,D,11.0,2.0,shape,2,,5342.0,R.scramb,E7
1320,92.0,D,11.0,3.0,pear,3,pear,5760.0,R.scramb,E7
1321,92.0,D,11.0,4.0,guest,4,guest,5858.0,R.scramb,E7
1322,92.0,D,12.0,0.0,chest,0,chest,5707.0,R.scramb,E7
1323,92.0,D,12.0,1.0,lane,1,lane,5448.0,R.scramb,E7
1324,92.0,D,12.0,2.0,hair,2,hair,6551.0,R.scramb,E7
1325,92.0,D,12.0,3.0,crown,3,,6377.0,R.scramb,E7
1326,92.0,D,13.0,0.0,toy,0,train,5232.0,R.scramb,E7
1327,92.0,D,13.0,1.0,wreck,1,wreck,5960.0,R.scramb,E7
1328,92.0,D,13.0,2.0,frown,2,frown,6219.0,R.scramb,E7
1329,92.0,D,14.0,0.0,beard,0,beard,5005.0,R.scramb,E7
1330,92.0,D,14.0,1.0,hill,1,hill,4942.0,R.scramb,E7
1331,92.0,D,14.0,2.0,dirt,2,,5169.0,R.scramb,E7
1332,92.0,D,14.0,3.0,card,3,dirt,6964.0,R.scramb,E7
1333,92.0,D,14.0,4.0,line,4,card,6382.0,R.scramb,E7
1334,92.0,D,15.0,0.0,mare,0,mare,4755.0,R.scramb,E7
1335,92.0,D,15.0,1.0,bell,1,bells,5143.0,R.scramb,E7
1336,92.0,D,15.0,2.0,brain,2,brain,6554.0,R.scramb,E7
1337,92.0,D,15.0,3.0,beef,3,beef,7651.0,R.scramb,E7
1338,92.0,S,16.0,0.0,king,0,king,5184.0,R.scramb,E7
1339,92.0,S,16.0,1.0,ring,1,ring,6867.0,R.scramb,E7
1340,92.0,S,16.0,2.0,spring,2,spring,7168.0,R.scramb,E7
1341,92.0,S,16.0,3.0,string,3,string,5009.0,R.scramb,E7
1342,92.0,S,16.0,4.0,wing,4,,6553.0,R.scramb,E7
1343,92.0,S,17.0,0.0,mail,0,mail,7755.0,R.scramb,E7
1344,92.0,S,17.0,1.0,sail,1,sail,7747.0,R.scramb,E7
1345,92.0,S,17.0,2.0,trail,2,trail,8412.0,R.scramb,E7
1346,92.0,S,17.0,3.0,wail,3,wail,7115.0,R.scramb,E7
1347,92.0,S,17.0,4.0,tail,4,,7685.0,R.scramb,E7
1348,92.0,S,17.0,5.0,jail,5,jail,6536.0,R.scramb,E7
1349,92.0,S,18.0,0.0,doll,0,doll,5795.0,R.scramb,E7
1350,92.0,S,18.0,1.0,ball,1,ball,5821.0,R.scramb,E7
1351,92.0,S,18.0,2.0,shawl,2,shawl,5830.0,R.scramb,E7
1352,92.0,S,18.0,3.0,hall,3,hall,7925.0,R.scramb,E7
1353,92.0,S,18.0,4.0,brawl,4,brawl,7270.0,R.scramb,E7
1354,92.0,S,18.0,5.0,wall,5,wall,6266.0,R.scramb,E7
1355,92.0,S,19.0,0.0,jar,0,jar,5480.0,R.scramb,E7
1356,92.0,S,19.0,1.0,bar,1,bar,4448.0,R.scramb,E7
1357,92.0,S,19.0,2.0,car,2,car,5927.0,R.scramb,E7
1358,92.0,S,19.0,3.0,scar,3,scar,6955.0,R.scramb,E7
1359,92.0,S,19.0,4.0,star,4,star,6013.0,R.scramb,E7
1360,92.0,S,20.0,0.0,bread,0,bread,4876.0,R.scramb,E7
1361,92.0,S,20.0,1.0,head,1,head,4842.0,R.scramb,E7
1362,92.0,S,20.0,2.0,thread,2,thread,5369.0,R.scramb,E7
1363,92.0,S,20.0,3.0,bed,3,bed,4317.0,R.scramb,E7
1364,92.0,S,21.0,0.0,boot,0,boot,5719.0,R.scramb,E7
1365,92.0,S,21.0,1.0,suit,1,suit,6514.0,R.scramb,E7
1366,92.0,S,21.0,2.0,flute,2,flute,5398.0,R.scramb,E7
1367,92.0,S,21.0,3.0,loot,3,loot,4711.0,R.scramb,E7
1368,92.0,S,21.0,4.0,root,4,root,6253.0,R.scramb,E7
1369,92.0,S,21.0,5.0,brute,5,brute,6563.0,R.scramb,E7
1370,92.0,S,22.0,0.0,deer,0,deer,6024.0,R.scramb,E7
1371,92.0,S,22.0,1.0,sphere,1,sphere,5752.0,R.scramb,E7
1372,92.0,S,22.0,2.0,ear,2,ear,5612.0,R.scramb,E7
1373,92.0,S,22.0,3.0,tear,3,tear,5188.0,R.scramb,E7
1374,92.0,S,23.0,0.0,cream,0,cream,5009.0,R.scramb,E7
1375,92.0,S,23.0,1.0,team,1,team,6203.0,R.scramb,E7
1376,92.0,S,23.0,2.0,steam,2,steam,6499.0,R.scramb,E7
1377,92.0,S,24.0,0.0,band,0,band,5076.0,R.scramb,E7
1378,92.0,S,24.0,1.0,land,1,land,5626.0,R.scramb,E7
1379,92.0,S,24.0,2.0,stand,2,stand,6417.0,R.scramb,E7
1380,92.0,S,24.0,3.0,hand,3,hand,5626.0,R.scramb,E7
1381,92.0,S,25.0,0.0,pie,0,pie,4999.0,R.scramb,E7
1382,92.0,S,25.0,1.0,fly,1,fly,6985.0,R.scramb,E7
1383,92.0,S,25.0,2.0,tie,2,tie,6137.0,R.scramb,E7
1384,92.0,S,25.0,3.0,sky,3,sky,5620.0,R.scramb,E7
1385,92.0,S,25.0,4.0,eye,4,,8588.0,R.scramb,E7
1386,92.0,S,26.0,0.0,blouse,0,blouse,5290.0,R.scramb,E7
1387,92.0,S,26.0,1.0,house,1,house,4944.0,R.scramb,E7
1388,92.0,S,26.0,2.0,mouse,2,mouse,6604.0,R.scramb,E7
1389,92.0,S,27.0,0.0,bone,0,bone,5555.0,R.scramb,E7
1390,92.0,S,27.0,1.0,phone,1,phone,5509.0,R.scramb,E7
1391,92.0,S,27.0,2.0,stone,2,stone,7443.0,R.scramb,E7
1392,94.0,P,0.0,0.0,farm,0,farm,,R.scramb,E7
1393,94.0,P,0.0,1.0,arm,1,arm,,R.scramb,E7
1394,94.0,P,1.0,0.0,hood,0,hood,,R.scramb,E7
1395,94.0,P,1.0,1.0,wood,1,wood,,R.scramb,E7
1396,94.0,P,2.0,0.0,bath,0,bath,,R.scramb,E7
1397,94.0,P,2.0,1.0,dawn,1,dawn,,R.scramb,E7
1398,94.0,P,3.0,0.0,earth,0,earth,,R.scramb,E7
1399,94.0,P,3.0,1.0,peach,1,peach,,R.scramb,E7
1400,94.0,S,4.0,0.0,band,0,band,4862.0,R.scramb,E7
1401,94.0,S,4.0,1.0,land,1,stand,6300.0,R.scramb,E7
1402,94.0,S,4.0,2.0,stand,2,,5609.0,R.scramb,E7
1403,94.0,S,4.0,3.0,hand,3,hand,6169.0,R.scramb,E7
1404,94.0,S,5.0,0.0,blouse,0,blouse,5508.0,R.scramb,E7
1405,94.0,S,5.0,1.0,house,1,house,5160.0,R.scramb,E7
1406,94.0,S,5.0,2.0,mouse,2,mouse,5899.0,R.scramb,E7
1407,94.0,S,6.0,0.0,bread,0,bread,4638.0,R.scramb,E7
1408,94.0,S,6.0,1.0,head,1,thread,5177.0,R.scramb,E7
1409,94.0,S,6.0,2.0,thread,2,head,6011.0,R.scramb,E7
1410,94.0,S,6.0,3.0,bed,3,bed,4810.0,R.scramb,E7
1411,94.0,S,7.0,0.0,boot,0,boot,5594.0,R.scramb,E7
1412,94.0,S,7.0,1.0,suit,1,suit,5691.0,R.scramb,E7
1413,94.0,S,7.0,2.0,flute,2,flute,5136.0,R.scramb,E7
1414,94.0,S,7.0,3.0,loot,3,,4900.0,R.scramb,E7
1415,94.0,S,7.0,4.0,root,4,lute,5698.0,R.scramb,E7
1416,94.0,S,7.0,5.0,brute,5,brute,4591.0,R.scramb,E7
1417,94.0,S,8.0,0.0,mail,0,mail,6141.0,R.scramb,E7
1418,94.0,S,8.0,1.0,sail,1,sail,6754.0,R.scramb,E7
1419,94.0,S,8.0,2.0,trail,2,jail,5396.0,R.scramb,E7
1420,94.0,S,8.0,3.0,wail,3,tail,5957.0,R.scramb,E7
1421,94.0,S,8.0,4.0,tail,,,5182.0,R.scramb,E7
1422,94.0,S,8.0,5.0,jail,,,5337.0,R.scramb,E7
1423,94.0,S,9.0,0.0,pie,0,pie,5276.0,R.scramb,E7
1424,94.0,S,9.0,1.0,fly,1,sky,6266.0,R.scramb,E7
1425,94.0,S,9.0,2.0,tie,2,fly,5192.0,R.scramb,E7
1426,94.0,S,9.0,3.0,sky,3,high,4993.0,R.scramb,E7
1427,94.0,S,9.0,4.0,eye,,,6755.0,R.scramb,E7
1428,94.0,S,10.0,0.0,cream,0,cream,5317.0,R.scramb,E7
1429,94.0,S,10.0,1.0,team,1,beam,4306.0,R.scramb,E7
1430,94.0,S,10.0,2.0,steam,2,steam,6096.0,R.scramb,E7
1431,94.0,S,11.0,0.0,king,0,king,4894.0,R.scramb,E7
1432,94.0,S,11.0,1.0,ring,1,wing,5436.0,R.scramb,E7
1433,94.0,S,11.0,2.0,spring,2,ring,6003.0,R.scramb,E7
1434,94.0,S,11.0,3.0,string,3,,5043.0,R.scramb,E7
1435,94.0,S,11.0,4.0,wing,4,spring,5892.0,R.scramb,E7
1436,94.0,S,12.0,0.0,bone,0,bone,4571.0,R.scramb,E7
1437,94.0,S,12.0,1.0,phone,1,phone,5558.0,R.scramb,E7
1438,94.0,S,12.0,2.0,stone,2,stone,6249.0,R.scramb,E7
1439,94.0,S,13.0,0.0,doll,0,,5229.0,R.scramb,E7
1440,94.0,S,13.0,1.0,ball,1,doll,5406.0,R.scramb,E7
1441,94.0,S,13.0,2.0,shawl,2,ball,5190.0,R.scramb,E7
1442,94.0,S,13.0,3.0,hall,3,hall,6080.0,R.scramb,E7
1443,94.0,S,13.0,4.0,brawl,4,,6077.0,R.scramb,E7
1444,94.0,S,13.0,5.0,wall,5,brawl,5746.0,R.scramb,E7
1445,94.0,S,14.0,0.0,jar,0,jar,5743.0,R.scramb,E7
1446,94.0,S,14.0,1.0,bar,1,car,4899.0,R.scramb,E7
1447,94.0,S,14.0,2.0,car,2,bar,5697.0,R.scramb,E7
1448,94.0,S,14.0,3.0,scar,3,,6606.0,R.scramb,E7
1449,94.0,S,14.0,4.0,star,4,star,5485.0,R.scramb,E7
1450,94.0,S,15.0,0.0,deer,0,deer,5151.0,R.scramb,E7
1451,94.0,S,15.0,1.0,sphere,1,,6084.0,R.scramb,E7
1452,94.0,S,15.0,2.0,ear,2,rear,5313.0,R.scramb,E7
1453,94.0,S,15.0,3.0,tear,3,steer,5973.0,R.scramb,E7
1454,94.0,D,16.0,0.0,spice,0,,5729.0,R.scramb,E7
1455,94.0,D,16.0,1.0,heat,1,spice,4644.0,R.scramb,E7
1456,94.0,D,16.0,2.0,shape,2,heat,6044.0,R.scramb,E7
1457,94.0,D,16.0,3.0,pear,3,,5586.0,R.scramb,E7
1458,94.0,D,16.0,4.0,guest,4,pear,5940.0,R.scramb,E7
1459,94.0,D,17.0,0.0,neck,0,,5318.0,R.scramb,E7
1460,94.0,D,17.0,1.0,town,1,town,5611.0,R.scramb,E7
1461,94.0,D,17.0,2.0,hat,2,house,5835.0,R.scramb,E7
1462,94.0,D,17.0,3.0,street,3,,7283.0,R.scramb,E7
1463,94.0,D,18.0,0.0,ant,0,ant,5519.0,R.scramb,E7
1464,94.0,D,18.0,1.0,air,1,air,4827.0,R.scramb,E7
1465,94.0,D,18.0,2.0,ink,2,ink,5843.0,R.scramb,E7
1466,94.0,D,18.0,3.0,cloud,3,,5994.0,R.scramb,E7
1467,94.0,D,18.0,4.0,seat,4,seat,4610.0,R.scramb,E7
1468,94.0,D,18.0,5.0,breath,5,,5308.0,R.scramb,E7
1469,94.0,D,19.0,0.0,shell,0,,5542.0,R.scramb,E7
1470,94.0,D,19.0,1.0,tree,1,,5625.0,R.scramb,E7
1471,94.0,D,19.0,2.0,bowl,2,tree,6017.0,R.scramb,E7
1472,94.0,D,19.0,3.0,broom,3,bowl,6265.0,R.scramb,E7
1473,94.0,D,19.0,4.0,test,4,test,5734.0,R.scramb,E7
1474,94.0,D,19.0,5.0,ground,5,,4890.0,R.scramb,E7
1475,94.0,D,20.0,0.0,beard,0,,5417.0,R.scramb,E7
1476,94.0,D,20.0,1.0,hill,1,house,5193.0,R.scramb,E7
1477,94.0,D,20.0,2.0,dirt,2,cheer,4690.0,R.scramb,E7
1478,94.0,D,20.0,3.0,card,3,,6256.0,R.scramb,E7
1479,94.0,D,20.0,4.0,line,,,6302.0,R.scramb,E7
1480,94.0,D,21.0,0.0,path,0,path,5202.0,R.scramb,E7
1481,94.0,D,21.0,1.0,nest,1,nest,5963.0,R.scramb,E7
1482,94.0,D,21.0,2.0,square,2,,4517.0,R.scramb,E7
1483,94.0,D,21.0,3.0,wood,3,,5459.0,R.scramb,E7
1484,94.0,D,21.0,4.0,beach,4,beach,5305.0,R.scramb,E7
1485,94.0,D,22.0,0.0,rice,0,rice,5641.0,R.scramb,E7
1486,94.0,D,22.0,1.0,cat,1,cat,5640.0,R.scramb,E7
1487,94.0,D,22.0,2.0,trash,2,trash,5078.0,R.scramb,E7
1488,94.0,D,23.0,0.0,deck,0,,5176.0,R.scramb,E7
1489,94.0,D,23.0,1.0,slice,1,slice,4540.0,R.scramb,E7
1490,94.0,D,23.0,2.0,rat,2,rat,4928.0,R.scramb,E7
1491,94.0,D,24.0,0.0,chest,0,,5326.0,R.scramb,E7
1492,94.0,D,24.0,1.0,lane,1,,5730.0,R.scramb,E7
1493,94.0,D,24.0,2.0,hair,2,hair,6077.0,R.scramb,E7
1494,94.0,D,24.0,3.0,crown,3,crown,7514.0,R.scramb,E7
1495,94.0,D,25.0,0.0,coin,0,coins,6586.0,R.scramb,E7
1496,94.0,D,25.0,1.0,film,1,film,5819.0,R.scramb,E7
1497,94.0,D,25.0,2.0,leaf,2,,6067.0,R.scramb,E7
1498,94.0,D,25.0,3.0,train,3,,5441.0,R.scramb,E7
1499,94.0,D,25.0,4.0,map,4,map,5264.0,R.scramb,E7
1500,94.0,D,25.0,5.0,art,,,6022.0,R.scramb,E7
1501,94.0,D,26.0,0.0,mare,0,mare,5108.0,R.scramb,E7
1502,94.0,D,26.0,1.0,bell,1,,4304.0,R.scramb,E7
1503,94.0,D,26.0,2.0,brain,2,brain,5766.0,R.scramb,E7
1504,94.0,D,26.0,3.0,beef,3,beef,6481.0,R.scramb,E7
1505,94.0,D,27.0,0.0,toy,0,toy,5390.0,R.scramb,E7
1506,94.0,D,27.0,1.0,wreck,1,reck,5825.0,R.scramb,E7
1507,94.0,D,27.0,2.0,frown,2,frown,6416.0,R.scramb,E7
1508,96.0,P,0.0,0.0,hood,0,hood,,R.scramb,E7
1509,96.0,P,0.0,1.0,wood,1,wood,,R.scramb,E7
1510,96.0,P,1.0,0.0,bath,0,bath,,R.scramb,E7
1511,96.0,P,1.0,1.0,dawn,1,dawn,,R.scramb,E7
1512,96.0,P,2.0,0.0,earth,0,earth,,R.scramb,E7
1513,96.0,P,2.0,1.0,peach,1,peach,,R.scramb,E7
1514,96.0,P,3.0,0.0,farm,0,farm,,R.scramb,E7
1515,96.0,P,3.0,1.0,arm,1,arm,,R.scramb,E7
1516,96.0,D,4.0,0.0,path,0,path,8014.0,R.scramb,E7
1517,96.0,D,4.0,1.0,nest,1,nest,4942.0,R.scramb,E7
1518,96.0,D,4.0,2.0,square,2,beach,4829.0,R.scramb,E7
1519,96.0,D,4.0,3.0,wood,,,6793.0,R.scramb,E7
1520,96.0,D,4.0,4.0,beach,,,5884.0,R.scramb,E7
1521,96.0,D,5.0,0.0,deck,0,,5101.0,R.scramb,E7
1522,96.0,D,5.0,1.0,slice,1,,4757.0,R.scramb,E7
1523,96.0,D,5.0,2.0,rat,2,rat,6140.0,R.scramb,E7
1524,96.0,D,6.0,0.0,chest,0,chest,4943.0,R.scramb,E7
1525,96.0,D,6.0,1.0,lane,1,lane,5438.0,R.scramb,E7
1526,96.0,D,6.0,2.0,hair,2,hair,6564.0,R.scramb,E7
1527,96.0,D,6.0,3.0,crown,3,,6497.0,R.scramb,E7
1528,96.0,D,7.0,0.0,mare,0,horse,5377.0,R.scramb,E7
1529,96.0,D,7.0,1.0,bell,1,bell,4633.0,R.scramb,E7
1530,96.0,D,7.0,2.0,brain,2,brain,5555.0,R.scramb,E7
1531,96.0,D,7.0,3.0,beef,3,beef,6519.0,R.scramb,E7
1532,96.0,D,8.0,0.0,shell,0,bell,3411.0,R.scramb,E7
1533,96.0,D,8.0,1.0,tree,1,wood,8084.0,R.scramb,E7
1534,96.0,D,8.0,2.0,bowl,2,bowl,7354.0,R.scramb,E7
1535,96.0,D,8.0,3.0,broom,3,,6580.0,R.scramb,E7
1536,96.0,D,8.0,4.0,test,4,,6420.0,R.scramb,E7
1537,96.0,D,8.0,5.0,ground,5,,5243.0,R.scramb,E7
1538,96.0,D,9.0,0.0,ant,0,ant,4686.0,R.scramb,E7
1539,96.0,D,9.0,1.0,air,1,air,5996.0,R.scramb,E7
1540,96.0,D,9.0,2.0,ink,2,ink,5887.0,R.scramb,E7
1541,96.0,D,9.0,3.0,cloud,3,,6660.0,R.scramb,E7
1542,96.0,D,9.0,4.0,seat,4,seat,4348.0,R.scramb,E7
1543,96.0,D,9.0,5.0,breath,5,breath,5078.0,R.scramb,E7
1544,96.0,D,10.0,0.0,rice,0,rice,5542.0,R.scramb,E7
1545,96.0,D,10.0,1.0,cat,1,cat,5222.0,R.scramb,E7
1546,96.0,D,10.0,2.0,trash,2,trash,4582.0,R.scramb,E7
1547,96.0,D,11.0,0.0,spice,0,spice,4908.0,R.scramb,E7
1548,96.0,D,11.0,1.0,heat,1,heat,4327.0,R.scramb,E7
1549,96.0,D,11.0,2.0,shape,2,shape,5893.0,R.scramb,E7
1550,96.0,D,11.0,3.0,pear,3,pear,4948.0,R.scramb,E7
1551,96.0,D,11.0,4.0,guest,4,guest,5279.0,R.scramb,E7
1552,96.0,D,12.0,0.0,toy,0,toy,5135.0,R.scramb,E7
1553,96.0,D,12.0,1.0,wreck,1,wreck,5631.0,R.scramb,E7
1554,96.0,D,12.0,2.0,frown,2,frown,5458.0,R.scramb,E7
1555,96.0,D,13.0,0.0,beard,0,beard,5039.0,R.scramb,E7
1556,96.0,D,13.0,1.0,hill,1,hill,5261.0,R.scramb,E7
1557,96.0,D,13.0,2.0,dirt,2,dirt,4565.0,R.scramb,E7
1558,96.0,D,13.0,3.0,card,3,card,6609.0,R.scramb,E7
1559,96.0,D,13.0,4.0,line,4,,5920.0,R.scramb,E7
1560,96.0,D,14.0,0.0,neck,0,neck,4826.0,R.scramb,E7
1561,96.0,D,14.0,1.0,town,1,,5333.0,R.scramb,E7
1562,96.0,D,14.0,2.0,hat,2,hat,5293.0,R.scramb,E7
1563,96.0,D,14.0,3.0,street,3,street,6549.0,R.scramb,E7
1564,96.0,D,15.0,0.0,coin,0,coin,6925.0,R.scramb,E7
1565,96.0,D,15.0,1.0,film,1,film,5617.0,R.scramb,E7
1566,96.0,D,15.0,2.0,leaf,2,leaf,6042.0,R.scramb,E7
1567,96.0,D,15.0,3.0,train,3,train,5232.0,R.scramb,E7
1568,96.0,D,15.0,4.0,map,4,map,4825.0,R.scramb,E7
1569,96.0,D,15.0,5.0,art,5,,5669.0,R.scramb,E7
1570,96.0,S,16.0,0.0,bone,0,,5298.0,R.scramb,E7
1571,96.0,S,16.0,1.0,phone,1,phone,6123.0,R.scramb,E7
1572,96.0,S,16.0,2.0,stone,2,stone,7264.0,R.scramb,E7
1573,96.0,S,17.0,0.0,bread,0,bread,4704.0,R.scramb,E7
1574,96.0,S,17.0,1.0,head,1,head,4808.0,R.scramb,E7
1575,96.0,S,17.0,2.0,thread,2,thread,5548.0,R.scramb,E7
1576,96.0,S,17.0,3.0,bed,3,bed,5264.0,R.scramb,E7
1577,96.0,S,18.0,0.0,king,0,king,5300.0,R.scramb,E7
1578,96.0,S,18.0,1.0,ring,1,ring,5148.0,R.scramb,E7
1579,96.0,S,18.0,2.0,spring,2,,5695.0,R.scramb,E7
1580,96.0,S,18.0,3.0,string,3,spring,4392.0,R.scramb,E7
1581,96.0,S,18.0,4.0,wing,4,wing,6707.0,R.scramb,E7
1582,96.0,S,19.0,0.0,deer,0,dear,4997.0,R.scramb,E7
1583,96.0,S,19.0,1.0,sphere,1,sphere,5255.0,R.scramb,E7
1584,96.0,S,19.0,2.0,ear,2,ear,5575.0,R.scramb,E7
1585,96.0,S,19.0,3.0,tear,3,tear,4432.0,R.scramb,E7
1586,96.0,S,20.0,0.0,mail,0,mail,7128.0,R.scramb,E7
1587,96.0,S,20.0,1.0,sail,1,sail,6437.0,R.scramb,E7
1588,96.0,S,20.0,2.0,trail,2,wail,4944.0,R.scramb,E7
1589,96.0,S,20.0,3.0,wail,3,,1079.0,R.scramb,E7
1590,96.0,S,20.0,4.0,tail,4,,6509.0,R.scramb,E7
1591,96.0,S,20.0,5.0,jail,,,6384.0,R.scramb,E7
1592,96.0,S,21.0,0.0,pie,0,pie,5365.0,R.scramb,E7
1593,96.0,S,21.0,1.0,fly,1,fly,6146.0,R.scramb,E7
1594,96.0,S,21.0,2.0,tie,2,try,4829.0,R.scramb,E7
1595,96.0,S,21.0,3.0,sky,3,eye,5417.0,R.scramb,E7
1596,96.0,S,21.0,4.0,eye,,,6769.0,R.scramb,E7
1597,96.0,S,22.0,0.0,band,0,band,4438.0,R.scramb,E7
1598,96.0,S,22.0,1.0,land,1,land,6128.0,R.scramb,E7
1599,96.0,S,22.0,2.0,stand,2,stand,5278.0,R.scramb,E7
1600,96.0,S,22.0,3.0,hand,3,hand,5224.0,R.scramb,E7
1601,96.0,S,23.0,0.0,boot,0,boot,5336.0,R.scramb,E7
1602,96.0,S,23.0,1.0,suit,1,suit,6193.0,R.scramb,E7
1603,96.0,S,23.0,2.0,flute,2,flute,4746.0,R.scramb,E7
1604,96.0,S,23.0,3.0,loot,3,loot,4430.0,R.scramb,E7
1605,96.0,S,23.0,4.0,root,4,root,6024.0,R.scramb,E7
1606,96.0,S,23.0,5.0,brute,5,brute,5240.0,R.scramb,E7
1607,96.0,S,24.0,0.0,jar,0,jar,4813.0,R.scramb,E7
1608,96.0,S,24.0,1.0,bar,1,bar,4333.0,R.scramb,E7
1609,96.0,S,24.0,2.0,car,2,car,4686.0,R.scramb,E7
1610,96.0,S,24.0,3.0,scar,3,scar,6364.0,R.scramb,E7
1611,96.0,S,24.0,4.0,star,4,star,5953.0,R.scramb,E7
1612,96.0,S,25.0,0.0,doll,0,ball,4598.0,R.scramb,E7
1613,96.0,S,25.0,1.0,ball,1,,5436.0,R.scramb,E7
1614,96.0,S,25.0,2.0,shawl,2,doll,4118.0,R.scramb,E7
1615,96.0,S,25.0,3.0,hall,3,,5620.0,R.scramb,E7
1616,96.0,S,25.0,4.0,brawl,4,wall,6788.0,R.scramb,E7
1617,96.0,S,25.0,5.0,wall,,,5846.0,R.scramb,E7
1618,96.0,S,26.0,0.0,blouse,0,blouse,5788.0,R.scramb,E7
1619,96.0,S,26.0,1.0,house,1,house,4071.0,R.scramb,E7
1620,96.0,S,26.0,2.0,mouse,2,mouse,4481.0,R.scramb,E7
1621,96.0,S,27.0,0.0,cream,0,cream,4443.0,R.scramb,E7
1622,96.0,S,27.0,1.0,team,1,team,4225.0,R.scramb,E7
1623,96.0,S,27.0,2.0,steam,2,steam,6148.0,R.scramb,E7
1624,97.0,P,0.0,0.0,bath,0,bath,,R.scramb,E7
1625,97.0,P,0.0,1.0,dawn,1,dawn,,R.scramb,E7
1626,97.0,P,1.0,0.0,earth,0,earth,,R.scramb,E7
1627,97.0,P,1.0,1.0,peach,1,peach,,R.scramb,E7
1628,97.0,P,2.0,0.0,farm,0,farm,,R.scramb,E7
1629,97.0,P,2.0,1.0,arm,1,arm,,R.scramb,E7
1630,97.0,P,3.0,0.0,hood,0,hood,,R.scramb,E7
1631,97.0,P,3.0,1.0,wood,1,wood,,R.scramb,E7
1632,97.0,D,4.0,0.0,chest,0,chest,6726.0,R.scramb,E7
1633,97.0,D,4.0,1.0,lane,1,lawn,6371.0,R.scramb,E7
1634,97.0,D,4.0,2.0,hair,2,lane,7456.0,R.scramb,E7
1635,97.0,D,4.0,3.0,crown,3,,9632.0,R.scramb,E7
1636,97.0,D,5.0,0.0,ant,0,ant,6923.0,R.scramb,E7
1637,97.0,D,5.0,1.0,air,1,air,6777.0,R.scramb,E7
1638,97.0,D,5.0,2.0,ink,2,ink,6905.0,R.scramb,E7
1639,97.0,D,5.0,3.0,cloud,3,,8524.0,R.scramb,E7
1640,97.0,D,5.0,4.0,seat,4,breath,5722.0,R.scramb,E7
1641,97.0,D,5.0,5.0,breath,,,6431.0,R.scramb,E7
1642,97.0,D,6.0,0.0,deck,0,,5291.0,R.scramb,E7
1643,97.0,D,6.0,1.0,slice,1,slice,5363.0,R.scramb,E7
1644,97.0,D,6.0,2.0,rat,2,rat,7106.0,R.scramb,E7
1645,97.0,D,7.0,0.0,beard,0,beard,5135.0,R.scramb,E7
1646,97.0,D,7.0,1.0,hill,1,,5887.0,R.scramb,E7
1647,97.0,D,7.0,2.0,dirt,2,,5587.0,R.scramb,E7
1648,97.0,D,7.0,3.0,card,3,,7030.0,R.scramb,E7
1649,97.0,D,7.0,4.0,line,4,line,7258.0,R.scramb,E7
1650,97.0,D,8.0,0.0,path,0,path,4837.0,R.scramb,E7
1651,97.0,D,8.0,1.0,nest,1,,5527.0,R.scramb,E7
1652,97.0,D,8.0,2.0,square,2,wood,4996.0,R.scramb,E7
1653,97.0,D,8.0,3.0,wood,3,beach,7007.0,R.scramb,E7
1654,97.0,D,8.0,4.0,beach,,,5933.0,R.scramb,E7
1655,97.0,D,9.0,0.0,mare,0,mare,4857.0,R.scramb,E7
1656,97.0,D,9.0,1.0,bell,1,,5362.0,R.scramb,E7
1657,97.0,D,9.0,2.0,brain,2,,6087.0,R.scramb,E7
1658,97.0,D,9.0,3.0,beef,3,beef,7053.0,R.scramb,E7
1659,97.0,D,10.0,0.0,coin,0,coin,6823.0,R.scramb,E7
1660,97.0,D,10.0,1.0,film,1,,5703.0,R.scramb,E7
1661,97.0,D,10.0,2.0,leaf,2,map,6302.0,R.scramb,E7
1662,97.0,D,10.0,3.0,train,3,art,5280.0,R.scramb,E7
1663,97.0,D,10.0,4.0,map,4,,5325.0,R.scramb,E7
1664,97.0,D,10.0,5.0,art,,,5977.0,R.scramb,E7
1665,97.0,D,11.0,0.0,toy,0,,5504.0,R.scramb,E7
1666,97.0,D,11.0,1.0,wreck,1,deck,7392.0,R.scramb,E7
1667,97.0,D,11.0,2.0,frown,2,frown,5034.0,R.scramb,E7
1668,97.0,D,12.0,0.0,neck,0,neck,6298.0,R.scramb,E7
1669,97.0,D,12.0,1.0,town,1,,6610.0,R.scramb,E7
1670,97.0,D,12.0,2.0,hat,2,bird,7496.0,R.scramb,E7
1671,97.0,D,12.0,3.0,street,3,street,8391.0,R.scramb,E7
1672,97.0,D,13.0,0.0,rice,0,rice,6505.0,R.scramb,E7
1673,97.0,D,13.0,1.0,cat,1,,5892.0,R.scramb,E7
1674,97.0,D,13.0,2.0,trash,2,trash,5301.0,R.scramb,E7
1675,97.0,D,14.0,0.0,spice,0,rice,863.0,R.scramb,E7
1676,97.0,D,14.0,1.0,heat,1,,5879.0,R.scramb,E7
1677,97.0,D,14.0,2.0,shape,2,pear,5284.0,R.scramb,E7
1678,97.0,D,14.0,3.0,pear,3,guest,4698.0,R.scramb,E7
1679,97.0,D,14.0,4.0,guest,,,5034.0,R.scramb,E7
1680,97.0,D,15.0,0.0,shell,0,,6741.0,R.scramb,E7
1681,97.0,D,15.0,1.0,tree,1,,7052.0,R.scramb,E7
1682,97.0,D,15.0,2.0,bowl,2,,7813.0,R.scramb,E7
1683,97.0,D,15.0,3.0,broom,3,,6653.0,R.scramb,E7
1684,97.0,D,15.0,4.0,test,4,ground,5421.0,R.scramb,E7
1685,97.0,D,15.0,5.0,ground,,,5661.0,R.scramb,E7
1686,97.0,S,16.0,0.0,doll,0,doll,5804.0,R.scramb,E7
1687,97.0,S,16.0,1.0,ball,1,ball,5834.0,R.scramb,E7
1688,97.0,S,16.0,2.0,shawl,2,shawl,6477.0,R.scramb,E7
1689,97.0,S,16.0,3.0,hall,3,hall,8439.0,R.scramb,E7
1690,97.0,S,16.0,4.0,brawl,4,wall,5838.0,R.scramb,E7
1691,97.0,S,16.0,5.0,wall,,,5896.0,R.scramb,E7
1692,97.0,S,17.0,0.0,jar,0,bar,4878.0,R.scramb,E7
1693,97.0,S,17.0,1.0,bar,1,jar,4696.0,R.scramb,E7
1694,97.0,S,17.0,2.0,car,2,,5336.0,R.scramb,E7
1695,97.0,S,17.0,3.0,scar,3,star,5999.0,R.scramb,E7
1696,97.0,S,17.0,4.0,star,4,,5037.0,R.scramb,E7
1697,97.0,S,18.0,0.0,bone,0,bone,5863.0,R.scramb,E7
1698,97.0,S,18.0,1.0,phone,1,phone,6184.0,R.scramb,E7
1699,97.0,S,18.0,2.0,stone,2,stone,5511.0,R.scramb,E7
1700,97.0,S,19.0,0.0,boot,0,boot,5882.0,R.scramb,E7
1701,97.0,S,19.0,1.0,suit,1,suit,7791.0,R.scramb,E7
1702,97.0,S,19.0,2.0,flute,2,flute,5394.0,R.scramb,E7
1703,97.0,S,19.0,3.0,loot,3,,4350.0,R.scramb,E7
1704,97.0,S,19.0,4.0,root,4,brute,7009.0,R.scramb,E7
1705,97.0,S,19.0,5.0,brute,5,,5078.0,R.scramb,E7
1706,97.0,S,20.0,0.0,bread,0,,5163.0,R.scramb,E7
1707,97.0,S,20.0,1.0,head,1,bread,4209.0,R.scramb,E7
1708,97.0,S,20.0,2.0,thread,2,,5846.0,R.scramb,E7
1709,97.0,S,20.0,3.0,bed,3,bed,5426.0,R.scramb,E7
1710,97.0,S,21.0,0.0,mail,0,mail,8274.0,R.scramb,E7
1711,97.0,S,21.0,1.0,sail,1,tail,6845.0,R.scramb,E7
1712,97.0,S,21.0,2.0,trail,2,,4915.0,R.scramb,E7
1713,97.0,S,21.0,3.0,wail,3,jail,5981.0,R.scramb,E7
1714,97.0,S,21.0,4.0,tail,,,6461.0,R.scramb,E7
1715,97.0,S,21.0,5.0,jail,,,6518.0,R.scramb,E7
1716,97.0,S,22.0,0.0,deer,0,,5609.0,R.scramb,E7
1717,97.0,S,22.0,1.0,sphere,1,,5558.0,R.scramb,E7
1718,97.0,S,22.0,2.0,ear,2,tear,6553.0,R.scramb,E7
1719,97.0,S,22.0,3.0,tear,,,5660.0,R.scramb,E7
1720,97.0,S,23.0,0.0,blouse,0,blouse,6060.0,R.scramb,E7
1721,97.0,S,23.0,1.0,house,1,house,4107.0,R.scramb,E7
1722,97.0,S,23.0,2.0,mouse,2,mouse,5357.0,R.scramb,E7
1723,97.0,S,24.0,0.0,pie,0,,5301.0,R.scramb,E7
1724,97.0,S,24.0,1.0,fly,1,fly,6741.0,R.scramb,E7
1725,97.0,S,24.0,2.0,tie,2,sky,8005.0,R.scramb,E7
1726,97.0,S,24.0,3.0,sky,3,eye,4630.0,R.scramb,E7
1727,97.0,S,24.0,4.0,eye,,,4456.0,R.scramb,E7
1728,97.0,S,25.0,0.0,cream,0,cream,5315.0,R.scramb,E7
1729,97.0,S,25.0,1.0,team,1,,4181.0,R.scramb,E7
1730,97.0,S,25.0,2.0,steam,2,steam,6638.0,R.scramb,E7
1731,97.0,S,26.0,0.0,king,0,king,5084.0,R.scramb,E7
1732,97.0,S,26.0,1.0,ring,1,,6241.0,R.scramb,E7
1733,97.0,S,26.0,2.0,spring,2,spring,5935.0,R.scramb,E7
1734,97.0,S,26.0,3.0,string,3,wing,4886.0,R.scramb,E7
1735,97.0,S,26.0,4.0,wing,,,4332.0,R.scramb,E7
1736,97.0,S,27.0,0.0,band,0,,5403.0,R.scramb,E7
1737,97.0,S,27.0,1.0,land,1,stand,4936.0,R.scramb,E7
1738,97.0,S,27.0,2.0,stand,2,hand,4904.0,R.scramb,E7
1739,97.0,S,27.0,3.0,hand,,,5260.0,R.scramb,E7
1740,112.0,P,0.0,0.0,bath,0,bath,,R.scramb,E7
1741,112.0,P,0.0,1.0,dawn,1,dawn,,R.scramb,E7
1742,112.0,P,1.0,0.0,earth,0,earth,,R.scramb,E7
1743,112.0,P,1.0,1.0,peach,1,peach,,R.scramb,E7
1744,112.0,P,2.0,0.0,hood,0,hood,,R.scramb,E7
1745,112.0,P,2.0,1.0,wood,1,wood,,R.scramb,E7
1746,112.0,P,3.0,0.0,farm,0,farm,,R.scramb,E7
1747,112.0,P,3.0,1.0,arm,1,arm,,R.scramb,E7
1748,112.0,S,4.0,0.0,pie,0,pie,4910.0,R.scramb,E7
1749,112.0,S,4.0,1.0,fly,1,,5793.0,R.scramb,E7
1750,112.0,S,4.0,2.0,tie,2,tie,5396.0,R.scramb,E7
1751,112.0,S,4.0,3.0,sky,3,fly,5246.0,R.scramb,E7
1752,112.0,S,4.0,4.0,eye,,,6244.0,R.scramb,E7
1753,112.0,S,5.0,0.0,king,0,king,4843.0,R.scramb,E7
1754,112.0,S,5.0,1.0,ring,1,ring,5721.0,R.scramb,E7
1755,112.0,S,5.0,2.0,spring,2,string,5854.0,R.scramb,E7
1756,112.0,S,5.0,3.0,string,3,wing,4446.0,R.scramb,E7
1757,112.0,S,5.0,4.0,wing,,,5852.0,R.scramb,E7
1758,112.0,S,6.0,0.0,jar,0,bar,4991.0,R.scramb,E7
1759,112.0,S,6.0,1.0,bar,1,jar,4770.0,R.scramb,E7
1760,112.0,S,6.0,2.0,car,2,car,4567.0,R.scramb,E7
1761,112.0,S,6.0,3.0,scar,3,,5028.0,R.scramb,E7
1762,112.0,S,6.0,4.0,star,4,star,4927.0,R.scramb,E7
1763,112.0,S,7.0,0.0,boot,0,boot,5502.0,R.scramb,E7
1764,112.0,S,7.0,1.0,suit,1,suit,5791.0,R.scramb,E7
1765,112.0,S,7.0,2.0,flute,2,flute,5306.0,R.scramb,E7
1766,112.0,S,7.0,3.0,loot,3,brute,3939.0,R.scramb,E7
1767,112.0,S,7.0,4.0,root,4,root,5611.0,R.scramb,E7
1768,112.0,S,7.0,5.0,brute,,,5164.0,R.scramb,E7
1769,112.0,S,8.0,0.0,band,0,band,4847.0,R.scramb,E7
1770,112.0,S,8.0,1.0,land,1,land,5492.0,R.scramb,E7
1771,112.0,S,8.0,2.0,stand,2,stand,4933.0,R.scramb,E7
1772,112.0,S,8.0,3.0,hand,3,hand,4956.0,R.scramb,E7
1773,112.0,S,9.0,0.0,cream,0,cream,4330.0,R.scramb,E7
1774,112.0,S,9.0,1.0,team,1,team,3590.0,R.scramb,E7
1775,112.0,S,9.0,2.0,steam,2,steam,6057.0,R.scramb,E7
1776,112.0,S,10.0,0.0,bone,0,bone,4548.0,R.scramb,E7
1777,112.0,S,10.0,1.0,phone,1,phone,5912.0,R.scramb,E7
1778,112.0,S,10.0,2.0,stone,2,stone,5705.0,R.scramb,E7
1779,112.0,S,11.0,0.0,bread,0,bread,4573.0,R.scramb,E7
1780,112.0,S,11.0,1.0,head,1,head,4277.0,R.scramb,E7
1781,112.0,S,11.0,2.0,thread,2,thread,4527.0,R.scramb,E7
1782,112.0,S,11.0,3.0,bed,3,bed,3780.0,R.scramb,E7
1783,112.0,S,12.0,0.0,blouse,0,blouse,5280.0,R.scramb,E7
1784,112.0,S,12.0,1.0,house,1,house,3948.0,R.scramb,E7
1785,112.0,S,12.0,2.0,mouse,2,mouse,4040.0,R.scramb,E7
1786,112.0,S,13.0,0.0,doll,0,ball,5160.0,R.scramb,E7
1787,112.0,S,13.0,1.0,ball,1,,4933.0,R.scramb,E7
1788,112.0,S,13.0,2.0,shawl,2,,3741.0,R.scramb,E7
1789,112.0,S,13.0,3.0,hall,3,,6029.0,R.scramb,E7
1790,112.0,S,13.0,4.0,brawl,,,5503.0,R.scramb,E7
1791,112.0,S,13.0,5.0,wall,,,5328.0,R.scramb,E7
1792,112.0,S,14.0,0.0,mail,0,,6584.0,R.scramb,E7
1793,112.0,S,14.0,1.0,sail,1,trail,5623.0,R.scramb,E7
1794,112.0,S,14.0,2.0,trail,2,sail,4632.0,R.scramb,E7
1795,112.0,S,14.0,3.0,wail,3,mail,6251.0,R.scramb,E7
1796,112.0,S,14.0,4.0,tail,4,tail,5224.0,R.scramb,E7
1797,112.0,S,14.0,5.0,jail,,,4863.0,R.scramb,E7
1798,112.0,S,15.0,0.0,deer,0,deer,4311.0,R.scramb,E7
1799,112.0,S,15.0,1.0,sphere,1,sphere,4690.0,R.scramb,E7
1800,112.0,S,15.0,2.0,ear,2,ear,4560.0,R.scramb,E7
1801,112.0,S,15.0,3.0,tear,3,tear,4685.0,R.scramb,E7
1802,112.0,D,16.0,0.0,spice,0,spice,4376.0,R.scramb,E7
1803,112.0,D,16.0,1.0,heat,1,heat,3599.0,R.scramb,E7
1804,112.0,D,16.0,2.0,shape,2,shape,5710.0,R.scramb,E7
1805,112.0,D,16.0,3.0,pear,3,pear,4048.0,R.scramb,E7
1806,112.0,D,16.0,4.0,guest,,,4837.0,R.scramb,E7
1807,112.0,D,17.0,0.0,shell,0,shell,4783.0,R.scramb,E7
1808,112.0,D,17.0,1.0,tree,1,tree,5377.0,R.scramb,E7
1809,112.0,D,17.0,2.0,bowl,2,bowl,5409.0,R.scramb,E7
1810,112.0,D,17.0,3.0,broom,3,broom,6294.0,R.scramb,E7
1811,112.0,D,17.0,4.0,test,4,,4830.0,R.scramb,E7
1812,112.0,D,17.0,5.0,ground,,,3873.0,R.scramb,E7
1813,112.0,D,18.0,0.0,deck,0,deck,4441.0,R.scramb,E7
1814,112.0,D,18.0,1.0,slice,1,,4165.0,R.scramb,E7
1815,112.0,D,18.0,2.0,rat,2,rat,5026.0,R.scramb,E7
1816,112.0,D,19.0,0.0,ant,0,ant,5226.0,R.scramb,E7
1817,112.0,D,19.0,1.0,air,1,air,5045.0,R.scramb,E7
1818,112.0,D,19.0,2.0,ink,2,ink,5003.0,R.scramb,E7
1819,112.0,D,19.0,3.0,cloud,3,,5073.0,R.scramb,E7
1820,112.0,D,19.0,4.0,seat,4,,5115.0,R.scramb,E7
1821,112.0,D,19.0,5.0,breath,5,breath,5061.0,R.scramb,E7
1822,112.0,D,20.0,0.0,toy,0,toy,4572.0,R.scramb,E7
1823,112.0,D,20.0,1.0,wreck,1,wreck,4804.0,R.scramb,E7
1824,112.0,D,20.0,2.0,frown,2,frown,5481.0,R.scramb,E7
1825,112.0,D,21.0,0.0,neck,0,neck,4894.0,R.scramb,E7
1826,112.0,D,21.0,1.0,town,1,town,5022.0,R.scramb,E7
1827,112.0,D,21.0,2.0,hat,2,hat,6334.0,R.scramb,E7
1828,112.0,D,21.0,3.0,street,3,street,7134.0,R.scramb,E7
1829,112.0,D,22.0,0.0,mare,0,mare,4044.0,R.scramb,E7
1830,112.0,D,22.0,1.0,bell,1,bell,4273.0,R.scramb,E7
1831,112.0,D,22.0,2.0,brain,2,brain,4748.0,R.scramb,E7
1832,112.0,D,22.0,3.0,beef,3,beef,6103.0,R.scramb,E7
1833,112.0,D,23.0,0.0,chest,0,chest,5094.0,R.scramb,E7
1834,112.0,D,23.0,1.0,lane,1,lane,5070.0,R.scramb,E7
1835,112.0,D,23.0,2.0,hair,2,hair,5024.0,R.scramb,E7
1836,112.0,D,23.0,3.0,crown,3,crown,6236.0,R.scramb,E7
1837,112.0,D,24.0,0.0,rice,0,meet,5259.0,R.scramb,E7
1838,112.0,D,24.0,1.0,cat,1,cat,5019.0,R.scramb,E7
1839,112.0,D,24.0,2.0,trash,2,trash,4107.0,R.scramb,E7
1840,112.0,D,25.0,0.0,beard,0,beard,5178.0,R.scramb,E7
1841,112.0,D,25.0,1.0,hill,1,stranger,4186.0,R.scramb,E7
1842,112.0,D,25.0,2.0,dirt,,,4307.0,R.scramb,E7
1843,112.0,D,25.0,3.0,card,,,4855.0,R.scramb,E7
1844,112.0,D,25.0,4.0,line,,,6071.0,R.scramb,E7
1845,112.0,D,26.0,0.0,path,0,,5874.0,R.scramb,E7
1846,112.0,D,26.0,1.0,nest,1,care,4547.0,R.scramb,E7
1847,112.0,D,26.0,2.0,square,2,wood,4543.0,R.scramb,E7
1848,112.0,D,26.0,3.0,wood,3,beach,5094.0,R.scramb,E7
1849,112.0,D,26.0,4.0,beach,,,5527.0,R.scramb,E7
1850,112.0,D,27.0,0.0,coin,0,coin,5415.0,R.scramb,E7
1851,112.0,D,27.0,1.0,film,1,film,5647.0,R.scramb,E7
1852,112.0,D,27.0,2.0,leaf,2,,5493.0,R.scramb,E7
1853,112.0,D,27.0,3.0,train,3,train,4189.0,R.scramb,E7
1854,112.0,D,27.0,4.0,map,4,,5471.0,R.scramb,E7
1855,112.0,D,27.0,5.0,art,,,5393.0,R.scramb,E7
1856,54.0,P,0.0,,,2,,,R.scramb,E7
1857,54.0,P,2.0,,,2,,,R.scramb,E7
1858,54.0,P,3.0,,,2,,,R.scramb,E7
1859,1.0,P,3.0,,,2,,,R.scramb,E7
1860,66.0,P,0.0,,,2,,,R.scramb,E7
1861,67.0,P,0.0,,,2,,,R.scramb,E7
1862,67.0,P,2.0,,,2,,,R.scramb,E7
1863,70.0,P,0.0,,,2,,,R.scramb,E7
1864,70.0,P,2.0,,,2,,,R.scramb,E7
1865,94.0,P,0.0,,,2,,,R.scramb,E7
1866,96.0,P,0.0,,,2,,,R.scramb,E7
1867,54.0,S,5.0,,,3,,,R.scramb,E7
1868,54.0,S,6.0,,,3,,,R.scramb,E7
1869,54.0,S,13.0,,,3,,,R.scramb,E7
1870,54.0,D,16.0,,,3,,,R.scramb,E7
1871,54.0,D,20.0,,,3,,,R.scramb,E7
1872,54.0,D,27.0,,,3,,,R.scramb,E7
1873,62.0,S,25.0,,,3,,,R.scramb,E7
1874,70.0,S,21.0,,,3,,,R.scramb,E7
1875,96.0,D,12.0,,,3,,,R.scramb,E7
1876,97.0,D,13.0,,,3,,,R.scramb,E7
1877,54.0,S,8.0,,,4,,,R.scramb,E7
1878,54.0,S,10.0,,,4,,,R.scramb,E7
1879,54.0,S,14.0,,,4,,,R.scramb,E7
1880,54.0,D,17.0,,,4,,,R.scramb,E7
1881,54.0,D,23.0,,,4,,,R.scramb,E7
1882,54.0,D,25.0,,,4,,,R.scramb,E7
1883,92.0,D,12.0,,,4,,,R.scramb,E7
1884,96.0,D,6.0,,,4,,,R.scramb,E7
1885,97.0,D,4.0,,,4,,,R.scramb,E7
1886,54.0,S,4.0,,,5,,,R.scramb,E7
1887,54.0,D,21.0,,,5,,,R.scramb,E7
1888,54.0,D,24.0,,,5,,,R.scramb,E7
1889,54.0,D,26.0,,,5,,,R.scramb,E7
1890,72.0,D,25.0,,,5,beach,,R.scramb,E7
1891,72.0,D,26.0,,,5,guest,,R.scramb,E7
1892,88.0,D,16.0,,,5,,,R.scramb,E7
1893,92.0,S,25.0,,,5,,,R.scramb,E7
1894,94.0,D,16.0,,,5,guest,,R.scramb,E7
1895,96.0,D,13.0,,,5,,,R.scramb,E7
1896,62.0,D,8.0,,,6,,,R.scramb,E7
1897,62.0,D,8.0,,,7,,,R.scramb,E7
1898,62.0,D,13.0,,,6,breath,,R.scramb,E7
1899,94.0,D,18.0,,,6,breath,,R.scramb,E7
1900,96.0,D,9.0,,,6,,,R.scramb,E7
1901,96.0,D,15.0,,,6,,,R.scramb,E7
