,Subject,trialtype,trialnum,inpos,TBR,outpos,resp,dist_RT,task,folder
0,13.0,P,0.0,0.0,farm,0,farm,,Rspan.short,E2
1,13.0,P,0.0,1.0,arm,1,arm,,Rspan.short,E2
2,13.0,P,1.0,0.0,bath,0,bath,,Rspan.short,E2
3,13.0,P,1.0,1.0,dawn,1,dawn,,Rspan.short,E2
4,13.0,P,2.0,0.0,hood,0,hood,,Rspan.short,E2
5,13.0,P,2.0,1.0,wood,1,wood,,Rspan.short,E2
6,13.0,P,3.0,0.0,earth,0,earth,,Rspan.short,E2
7,13.0,P,3.0,1.0,peach,1,peach,,Rspan.short,E2
8,13.0,D,4.0,0.0,rice,0,ice,3223.0,Rspan.short,E2
9,13.0,D,4.0,1.0,cat,1,cat,4071.0,Rspan.short,E2
10,13.0,D,4.0,2.0,trash,2,trash,3495.0,Rspan.short,E2
11,13.0,D,5.0,0.0,shell,0,test,3513.0,Rspan.short,E2
12,13.0,D,5.0,1.0,tree,1,ground,3327.0,Rspan.short,E2
13,13.0,D,5.0,2.0,bowl,,,3935.0,Rspan.short,E2
14,13.0,D,5.0,3.0,broom,,,4559.0,Rspan.short,E2
15,13.0,D,5.0,4.0,test,,,4031.0,Rspan.short,E2
16,13.0,D,5.0,5.0,ground,,,3727.0,Rspan.short,E2
17,13.0,D,6.0,0.0,toy,0,toy,3560.0,Rspan.short,E2
18,13.0,D,6.0,1.0,wreck,1,wreck,3527.0,Rspan.short,E2
19,13.0,D,6.0,2.0,frown,2,frown,3319.0,Rspan.short,E2
20,13.0,D,7.0,0.0,deck,0,deck,2912.0,Rspan.short,E2
21,13.0,D,7.0,1.0,slice,1,slice,3167.0,Rspan.short,E2
22,13.0,D,7.0,2.0,rat,2,rat,3247.0,Rspan.short,E2
23,13.0,D,8.0,0.0,ant,0,ink,3144.0,Rspan.short,E2
24,13.0,D,8.0,1.0,air,1,seat,3479.0,Rspan.short,E2
25,13.0,D,8.0,2.0,ink,2,breath,3183.0,Rspan.short,E2
26,13.0,D,8.0,3.0,cloud,,,3983.0,Rspan.short,E2
27,13.0,D,8.0,4.0,seat,,,3511.0,Rspan.short,E2
28,13.0,D,8.0,5.0,breath,,,3167.0,Rspan.short,E2
29,13.0,D,9.0,0.0,beard,0,dirt,5120.0,Rspan.short,E2
30,13.0,D,9.0,1.0,hill,1,card,4335.0,Rspan.short,E2
31,13.0,D,9.0,2.0,dirt,2,line,3711.0,Rspan.short,E2
32,13.0,D,9.0,3.0,card,,,3671.0,Rspan.short,E2
33,13.0,D,9.0,4.0,line,,,4223.0,Rspan.short,E2
34,13.0,D,10.0,0.0,path,0,wood,2768.0,Rspan.short,E2
35,13.0,D,10.0,1.0,nest,1,beach,3407.0,Rspan.short,E2
36,13.0,D,10.0,2.0,square,,,4327.0,Rspan.short,E2
37,13.0,D,10.0,3.0,wood,,,4319.0,Rspan.short,E2
38,13.0,D,10.0,4.0,beach,,,3967.0,Rspan.short,E2
39,13.0,D,11.0,0.0,mare,0,mare,3032.0,Rspan.short,E2
40,13.0,D,11.0,1.0,bell,1,bell,2991.0,Rspan.short,E2
41,13.0,D,11.0,2.0,brain,2,beef,3359.0,Rspan.short,E2
42,13.0,D,11.0,3.0,beef,,,3447.0,Rspan.short,E2
43,13.0,D,12.0,0.0,coin,0,coin,4064.0,Rspan.short,E2
44,13.0,D,12.0,1.0,film,1,map,3343.0,Rspan.short,E2
45,13.0,D,12.0,2.0,leaf,2,art,4215.0,Rspan.short,E2
46,13.0,D,12.0,3.0,train,,,3335.0,Rspan.short,E2
47,13.0,D,12.0,4.0,map,,,4511.0,Rspan.short,E2
48,13.0,D,12.0,5.0,art,,,3255.0,Rspan.short,E2
49,13.0,D,13.0,0.0,spice,0,sheep,3592.0,Rspan.short,E2
50,13.0,D,13.0,1.0,heat,1,pear,2823.0,Rspan.short,E2
51,13.0,D,13.0,2.0,shape,2,guest,3127.0,Rspan.short,E2
52,13.0,D,13.0,3.0,pear,,,3487.0,Rspan.short,E2
53,13.0,D,13.0,4.0,guest,,,2831.0,Rspan.short,E2
54,13.0,D,14.0,0.0,chest,0,hair,3688.0,Rspan.short,E2
55,13.0,D,14.0,1.0,lane,1,crown,3719.0,Rspan.short,E2
56,13.0,D,14.0,2.0,hair,,,3951.0,Rspan.short,E2
57,13.0,D,14.0,3.0,crown,,,4327.0,Rspan.short,E2
58,13.0,D,15.0,0.0,neck,0,neck,3944.0,Rspan.short,E2
59,13.0,D,15.0,1.0,town,1,hat,4015.0,Rspan.short,E2
60,13.0,D,15.0,2.0,hat,2,street,3647.0,Rspan.short,E2
61,13.0,D,15.0,3.0,street,,,3399.0,Rspan.short,E2
62,13.0,S,16.0,0.0,pie,0,pie,3528.0,Rspan.short,E2
63,13.0,S,16.0,1.0,fly,1,tie,4383.0,Rspan.short,E2
64,13.0,S,16.0,2.0,tie,2,sky,3719.0,Rspan.short,E2
65,13.0,S,16.0,3.0,sky,3,eye,3151.0,Rspan.short,E2
66,13.0,S,16.0,4.0,eye,,,3495.0,Rspan.short,E2
67,13.0,S,17.0,0.0,mail,0,mail,4632.0,Rspan.short,E2
68,13.0,S,17.0,1.0,sail,1,jail,4127.0,Rspan.short,E2
69,13.0,S,17.0,2.0,trail,,,3359.0,Rspan.short,E2
70,13.0,S,17.0,3.0,wail,,,3287.0,Rspan.short,E2
71,13.0,S,17.0,4.0,tail,,,3207.0,Rspan.short,E2
72,13.0,S,17.0,5.0,jail,,,3543.0,Rspan.short,E2
73,13.0,S,18.0,0.0,doll,0,ball,3680.0,Rspan.short,E2
74,13.0,S,18.0,1.0,ball,1,wall,3399.0,Rspan.short,E2
75,13.0,S,18.0,2.0,shawl,,,4127.0,Rspan.short,E2
76,13.0,S,18.0,3.0,hall,,,4511.0,Rspan.short,E2
77,13.0,S,18.0,4.0,brawl,,,3479.0,Rspan.short,E2
78,13.0,S,18.0,5.0,wall,,,3871.0,Rspan.short,E2
79,13.0,S,19.0,0.0,boot,0,boot,4672.0,Rspan.short,E2
80,13.0,S,19.0,1.0,suit,1,suit,3743.0,Rspan.short,E2
81,13.0,S,19.0,2.0,flute,2,loot,3703.0,Rspan.short,E2
82,13.0,S,19.0,3.0,loot,3,root,3359.0,Rspan.short,E2
83,13.0,S,19.0,4.0,root,4,brute,3095.0,Rspan.short,E2
84,13.0,S,19.0,5.0,brute,,,3047.0,Rspan.short,E2
85,13.0,S,20.0,0.0,king,0,king,4824.0,Rspan.short,E2
86,13.0,S,20.0,1.0,ring,1,spring,4271.0,Rspan.short,E2
87,13.0,S,20.0,2.0,spring,2,sing,3391.0,Rspan.short,E2
88,13.0,S,20.0,3.0,string,,,4391.0,Rspan.short,E2
89,13.0,S,20.0,4.0,wing,,,3471.0,Rspan.short,E2
90,13.0,S,21.0,0.0,bread,0,bread,4440.0,Rspan.short,E2
91,13.0,S,21.0,1.0,head,1,head,3391.0,Rspan.short,E2
92,13.0,S,21.0,2.0,thread,2,bed,3711.0,Rspan.short,E2
93,13.0,S,21.0,3.0,bed,,,3839.0,Rspan.short,E2
94,13.0,S,22.0,0.0,blouse,0,blouse,3632.0,Rspan.short,E2
95,13.0,S,22.0,1.0,house,1,house,3111.0,Rspan.short,E2
96,13.0,S,22.0,2.0,mouse,2,mouse,3055.0,Rspan.short,E2
97,13.0,S,23.0,0.0,deer,0,sphere,3296.0,Rspan.short,E2
98,13.0,S,23.0,1.0,sphere,1,deer,3287.0,Rspan.short,E2
99,13.0,S,23.0,2.0,ear,2,ear,3183.0,Rspan.short,E2
100,13.0,S,23.0,3.0,tear,3,tear,3279.0,Rspan.short,E2
101,13.0,S,24.0,0.0,bone,0,bone,3504.0,Rspan.short,E2
102,13.0,S,24.0,1.0,phone,1,phone,4695.0,Rspan.short,E2
103,13.0,S,24.0,2.0,stone,2,stone,4071.0,Rspan.short,E2
104,13.0,S,25.0,0.0,jar,0,car,4064.0,Rspan.short,E2
105,13.0,S,25.0,1.0,bar,1,scar,2983.0,Rspan.short,E2
106,13.0,S,25.0,2.0,car,2,star,3854.0,Rspan.short,E2
107,13.0,S,25.0,3.0,scar,,,3519.0,Rspan.short,E2
108,13.0,S,25.0,4.0,star,,,3839.0,Rspan.short,E2
109,13.0,S,26.0,0.0,band,0,band,3000.0,Rspan.short,E2
110,13.0,S,26.0,1.0,land,1,stand,4855.0,Rspan.short,E2
111,13.0,S,26.0,2.0,stand,2,hand,2871.0,Rspan.short,E2
112,13.0,S,26.0,3.0,hand,,,3135.0,Rspan.short,E2
113,13.0,S,27.0,0.0,cream,0,cream,3872.0,Rspan.short,E2
114,13.0,S,27.0,1.0,team,1,team,3703.0,Rspan.short,E2
115,13.0,S,27.0,2.0,steam,2,steam,3799.0,Rspan.short,E2
116,15.0,P,0.0,0.0,bath,0,bath,,Rspan.short,E2
117,15.0,P,0.0,1.0,dawn,1,dawn,,Rspan.short,E2
118,15.0,P,1.0,0.0,farm,0,farm,,Rspan.short,E2
119,15.0,P,1.0,1.0,arm,1,arm,,Rspan.short,E2
120,15.0,P,2.0,0.0,hood,0,hood,,Rspan.short,E2
121,15.0,P,2.0,1.0,wood,1,wood,,Rspan.short,E2
122,15.0,P,3.0,0.0,earth,0,earth,,Rspan.short,E2
123,15.0,P,3.0,1.0,peach,1,peach,,Rspan.short,E2
124,15.0,S,4.0,0.0,mail,0,mail,4295.0,Rspan.short,E2
125,15.0,S,4.0,1.0,sail,1,sail,4248.0,Rspan.short,E2
126,15.0,S,4.0,2.0,trail,2,,3480.0,Rspan.short,E2
127,15.0,S,4.0,3.0,wail,3,trail,3704.0,Rspan.short,E2
128,15.0,S,4.0,4.0,tail,4,,3312.0,Rspan.short,E2
129,15.0,S,4.0,5.0,jail,5,tail,3472.0,Rspan.short,E2
130,15.0,S,5.0,0.0,blouse,0,blouse,4801.0,Rspan.short,E2
131,15.0,S,5.0,1.0,house,1,house,2976.0,Rspan.short,E2
132,15.0,S,5.0,2.0,mouse,2,mouse,3352.0,Rspan.short,E2
133,15.0,S,6.0,0.0,pie,0,pie,3433.0,Rspan.short,E2
134,15.0,S,6.0,1.0,fly,1,fly,3992.0,Rspan.short,E2
135,15.0,S,6.0,2.0,tie,2,,3088.0,Rspan.short,E2
136,15.0,S,6.0,3.0,sky,3,eye,3488.0,Rspan.short,E2
137,15.0,S,6.0,4.0,eye,4,tie,3608.0,Rspan.short,E2
138,15.0,S,7.0,0.0,cream,0,cream,3481.0,Rspan.short,E2
139,15.0,S,7.0,1.0,team,1,team,3016.0,Rspan.short,E2
140,15.0,S,7.0,2.0,steam,2,steam,3432.0,Rspan.short,E2
141,15.0,S,8.0,0.0,bone,0,bone,3351.0,Rspan.short,E2
142,15.0,S,8.0,1.0,phone,1,phone,3624.0,Rspan.short,E2
143,15.0,S,8.0,2.0,stone,2,stone,4256.0,Rspan.short,E2
144,15.0,S,9.0,0.0,band,0,band,3121.0,Rspan.short,E2
145,15.0,S,9.0,1.0,land,1,land,3128.0,Rspan.short,E2
146,15.0,S,9.0,2.0,stand,2,stand,3560.0,Rspan.short,E2
147,15.0,S,9.0,3.0,hand,3,hand,3720.0,Rspan.short,E2
148,15.0,S,10.0,0.0,bread,0,bread,3009.0,Rspan.short,E2
149,15.0,S,10.0,1.0,head,1,head,2872.0,Rspan.short,E2
150,15.0,S,10.0,2.0,thread,2,thread,3064.0,Rspan.short,E2
151,15.0,S,10.0,3.0,bed,3,bed,3136.0,Rspan.short,E2
152,15.0,S,11.0,0.0,boot,0,boot,3201.0,Rspan.short,E2
153,15.0,S,11.0,1.0,suit,1,suit,3976.0,Rspan.short,E2
154,15.0,S,11.0,2.0,flute,2,flute,3768.0,Rspan.short,E2
155,15.0,S,11.0,3.0,loot,3,,3816.0,Rspan.short,E2
156,15.0,S,11.0,4.0,root,4,loot,3656.0,Rspan.short,E2
157,15.0,S,11.0,5.0,brute,5,brute,2880.0,Rspan.short,E2
158,15.0,S,12.0,0.0,deer,0,,3177.0,Rspan.short,E2
159,15.0,S,12.0,1.0,sphere,1,sphere,3440.0,Rspan.short,E2
160,15.0,S,12.0,2.0,ear,2,,3072.0,Rspan.short,E2
161,15.0,S,12.0,3.0,tear,3,tear,4416.0,Rspan.short,E2
162,15.0,S,13.0,0.0,king,0,ring,3289.0,Rspan.short,E2
163,15.0,S,13.0,1.0,ring,1,king,3360.0,Rspan.short,E2
164,15.0,S,13.0,2.0,spring,2,,3320.0,Rspan.short,E2
165,15.0,S,13.0,3.0,string,3,wing,3136.0,Rspan.short,E2
166,15.0,S,13.0,4.0,wing,4,sting,3832.0,Rspan.short,E2
167,15.0,S,14.0,0.0,jar,0,bar,4841.0,Rspan.short,E2
168,15.0,S,14.0,1.0,bar,1,car,3280.0,Rspan.short,E2
169,15.0,S,14.0,2.0,car,2,jar,3312.0,Rspan.short,E2
170,15.0,S,14.0,3.0,scar,3,scar,3512.0,Rspan.short,E2
171,15.0,S,14.0,4.0,star,4,,6360.0,Rspan.short,E2
172,15.0,S,15.0,0.0,doll,0,doll,3657.0,Rspan.short,E2
173,15.0,S,15.0,1.0,ball,1,ball,3480.0,Rspan.short,E2
174,15.0,S,15.0,2.0,shawl,2,,2968.0,Rspan.short,E2
175,15.0,S,15.0,3.0,hall,3,shawl,3904.0,Rspan.short,E2
176,15.0,S,15.0,4.0,brawl,4,,3528.0,Rspan.short,E2
177,15.0,S,15.0,5.0,wall,5,brawl,3288.0,Rspan.short,E2
178,15.0,D,16.0,0.0,path,0,,3105.0,Rspan.short,E2
179,15.0,D,16.0,1.0,nest,1,nest,3352.0,Rspan.short,E2
180,15.0,D,16.0,2.0,square,2,,4464.0,Rspan.short,E2
181,15.0,D,16.0,3.0,wood,3,wood,3656.0,Rspan.short,E2
182,15.0,D,16.0,4.0,beach,4,beach,4336.0,Rspan.short,E2
183,15.0,D,17.0,0.0,neck,0,,3569.0,Rspan.short,E2
184,15.0,D,17.0,1.0,town,1,,4024.0,Rspan.short,E2
185,15.0,D,17.0,2.0,hat,2,hat,7200.0,Rspan.short,E2
186,15.0,D,17.0,3.0,street,3,street,3888.0,Rspan.short,E2
187,15.0,D,18.0,0.0,toy,0,toy,3457.0,Rspan.short,E2
188,15.0,D,18.0,1.0,wreck,1,wreck,3240.0,Rspan.short,E2
189,15.0,D,18.0,2.0,frown,2,frown,2816.0,Rspan.short,E2
190,15.0,D,19.0,0.0,shell,0,,3193.0,Rspan.short,E2
191,15.0,D,19.0,1.0,tree,1,,7200.0,Rspan.short,E2
192,15.0,D,19.0,2.0,bowl,2,,3448.0,Rspan.short,E2
193,15.0,D,19.0,3.0,broom,3,test,3360.0,Rspan.short,E2
194,15.0,D,19.0,4.0,test,4,ground,4552.0,Rspan.short,E2
195,15.0,D,19.0,5.0,ground,,,2999.0,Rspan.short,E2
196,15.0,D,20.0,0.0,chest,0,chest,3465.0,Rspan.short,E2
197,15.0,D,20.0,1.0,lane,1,,3792.0,Rspan.short,E2
198,15.0,D,20.0,2.0,hair,2,,4608.0,Rspan.short,E2
199,15.0,D,20.0,3.0,crown,3,crown,4848.0,Rspan.short,E2
200,15.0,D,21.0,0.0,ant,0,air,4240.0,Rspan.short,E2
201,15.0,D,21.0,1.0,air,1,ant,3528.0,Rspan.short,E2
202,15.0,D,21.0,2.0,ink,2,ink,3200.0,Rspan.short,E2
203,15.0,D,21.0,3.0,cloud,3,,3920.0,Rspan.short,E2
204,15.0,D,21.0,4.0,seat,4,,4344.0,Rspan.short,E2
205,15.0,D,21.0,5.0,breath,5,breath,3240.0,Rspan.short,E2
206,15.0,D,22.0,0.0,rice,0,nice,3513.0,Rspan.short,E2
207,15.0,D,22.0,1.0,cat,1,cat,4480.0,Rspan.short,E2
208,15.0,D,22.0,2.0,trash,2,trash,2840.0,Rspan.short,E2
209,15.0,D,23.0,0.0,spice,0,spice,3433.0,Rspan.short,E2
210,15.0,D,23.0,1.0,heat,1,,3232.0,Rspan.short,E2
211,15.0,D,23.0,2.0,shape,2,,3584.0,Rspan.short,E2
212,15.0,D,23.0,3.0,pear,3,pear,3320.0,Rspan.short,E2
213,15.0,D,23.0,4.0,guest,4,guest,3064.0,Rspan.short,E2
214,15.0,D,24.0,0.0,mare,0,mare,4464.0,Rspan.short,E2
215,15.0,D,24.0,1.0,bell,1,,3440.0,Rspan.short,E2
216,15.0,D,24.0,2.0,brain,2,brain,4191.0,Rspan.short,E2
217,15.0,D,24.0,3.0,beef,3,beef,4120.0,Rspan.short,E2
218,15.0,D,25.0,0.0,beard,0,beard,3353.0,Rspan.short,E2
219,15.0,D,25.0,1.0,hill,1,hill,3287.0,Rspan.short,E2
220,15.0,D,25.0,2.0,dirt,2,dirt,3016.0,Rspan.short,E2
221,15.0,D,25.0,3.0,card,3,,4000.0,Rspan.short,E2
222,15.0,D,25.0,4.0,line,4,line,3592.0,Rspan.short,E2
223,15.0,D,26.0,0.0,deck,0,yarn,3328.0,Rspan.short,E2
224,15.0,D,26.0,1.0,slice,1,slice,2632.0,Rspan.short,E2
225,15.0,D,26.0,2.0,rat,2,rat,3472.0,Rspan.short,E2
226,15.0,D,27.0,0.0,coin,0,,4425.0,Rspan.short,E2
227,15.0,D,27.0,1.0,film,1,leaf,4264.0,Rspan.short,E2
228,15.0,D,27.0,2.0,leaf,2,train,4072.0,Rspan.short,E2
229,15.0,D,27.0,3.0,train,3,,3816.0,Rspan.short,E2
230,15.0,D,27.0,4.0,map,4,art,3424.0,Rspan.short,E2
231,15.0,D,27.0,5.0,art,,,3632.0,Rspan.short,E2
232,17.0,P,0.0,0.0,bath,0,bath,,Rspan.short,E2
233,17.0,P,0.0,1.0,dawn,1,dawn,,Rspan.short,E2
234,17.0,P,1.0,0.0,earth,0,earth,,Rspan.short,E2
235,17.0,P,1.0,1.0,peach,1,peach,,Rspan.short,E2
236,17.0,P,2.0,0.0,hood,0,hood,,Rspan.short,E2
237,17.0,P,2.0,1.0,wood,1,wood,,Rspan.short,E2
238,17.0,P,3.0,0.0,farm,0,farm,,Rspan.short,E2
239,17.0,P,3.0,1.0,arm,1,arm,,Rspan.short,E2
240,17.0,D,4.0,0.0,toy,0,toy,3255.0,Rspan.short,E2
241,17.0,D,4.0,1.0,wreck,1,deck,3624.0,Rspan.short,E2
242,17.0,D,4.0,2.0,frown,2,,2951.0,Rspan.short,E2
243,17.0,D,5.0,0.0,beard,0,,3689.0,Rspan.short,E2
244,17.0,D,5.0,1.0,hill,1,,3216.0,Rspan.short,E2
245,17.0,D,5.0,2.0,dirt,2,,2815.0,Rspan.short,E2
246,17.0,D,5.0,3.0,card,3,line,3968.0,Rspan.short,E2
247,17.0,D,5.0,4.0,line,,,4967.0,Rspan.short,E2
248,17.0,D,6.0,0.0,mare,0,mare,3841.0,Rspan.short,E2
249,17.0,D,6.0,1.0,bell,1,,3007.0,Rspan.short,E2
250,17.0,D,6.0,2.0,brain,2,beef,3839.0,Rspan.short,E2
251,17.0,D,6.0,3.0,beef,,,3854.0,Rspan.short,E2
252,17.0,D,7.0,0.0,spice,0,,3128.0,Rspan.short,E2
253,17.0,D,7.0,1.0,heat,1,,2968.0,Rspan.short,E2
254,17.0,D,7.0,2.0,shape,2,,3552.0,Rspan.short,E2
255,17.0,D,7.0,3.0,pear,3,pear,3088.0,Rspan.short,E2
256,17.0,D,7.0,4.0,guest,4,guest,3224.0,Rspan.short,E2
257,17.0,D,8.0,0.0,deck,0,deck,3289.0,Rspan.short,E2
258,17.0,D,8.0,1.0,slice,1,slice,3120.0,Rspan.short,E2
259,17.0,D,8.0,2.0,rat,2,rat,2832.0,Rspan.short,E2
260,17.0,D,9.0,0.0,path,0,,2864.0,Rspan.short,E2
261,17.0,D,9.0,1.0,nest,1,,3679.0,Rspan.short,E2
262,17.0,D,9.0,2.0,square,2,wood,3055.0,Rspan.short,E2
263,17.0,D,9.0,3.0,wood,3,beach,3440.0,Rspan.short,E2
264,17.0,D,9.0,4.0,beach,,,4032.0,Rspan.short,E2
265,17.0,D,10.0,0.0,shell,0,,3297.0,Rspan.short,E2
266,17.0,D,10.0,1.0,tree,1,,3855.0,Rspan.short,E2
267,17.0,D,10.0,2.0,bowl,2,,4111.0,Rspan.short,E2
268,17.0,D,10.0,3.0,broom,3,test,3392.0,Rspan.short,E2
269,17.0,D,10.0,4.0,test,4,ground,3552.0,Rspan.short,E2
270,17.0,D,10.0,5.0,ground,,,2992.0,Rspan.short,E2
271,17.0,D,11.0,0.0,rice,0,rice,3665.0,Rspan.short,E2
272,17.0,D,11.0,1.0,cat,1,,3888.0,Rspan.short,E2
273,17.0,D,11.0,2.0,trash,2,trash,3375.0,Rspan.short,E2
274,17.0,D,12.0,0.0,coin,0,,4833.0,Rspan.short,E2
275,17.0,D,12.0,1.0,film,1,,3312.0,Rspan.short,E2
276,17.0,D,12.0,2.0,leaf,2,train,3552.0,Rspan.short,E2
277,17.0,D,12.0,3.0,train,3,,3504.0,Rspan.short,E2
278,17.0,D,12.0,4.0,map,4,art,4015.0,Rspan.short,E2
279,17.0,D,12.0,5.0,art,,,3351.0,Rspan.short,E2
280,17.0,D,13.0,0.0,chest,0,,3336.0,Rspan.short,E2
281,17.0,D,13.0,1.0,lane,1,hair,4407.0,Rspan.short,E2
282,17.0,D,13.0,2.0,hair,2,crown,4495.0,Rspan.short,E2
283,17.0,D,13.0,3.0,crown,,,3743.0,Rspan.short,E2
284,17.0,D,14.0,0.0,neck,0,,4225.0,Rspan.short,E2
285,17.0,D,14.0,1.0,town,1,,3536.0,Rspan.short,E2
286,17.0,D,14.0,2.0,hat,2,hat,3664.0,Rspan.short,E2
287,17.0,D,14.0,3.0,street,3,street,3608.0,Rspan.short,E2
288,17.0,D,15.0,0.0,ant,0,ant,3289.0,Rspan.short,E2
289,17.0,D,15.0,1.0,air,1,air,3999.0,Rspan.short,E2
290,17.0,D,15.0,2.0,ink,2,,3336.0,Rspan.short,E2
291,17.0,D,15.0,3.0,cloud,3,seat,3456.0,Rspan.short,E2
292,17.0,D,15.0,4.0,seat,4,breath,3215.0,Rspan.short,E2
293,17.0,D,15.0,5.0,breath,,,3360.0,Rspan.short,E2
294,17.0,S,16.0,0.0,boot,0,,3480.0,Rspan.short,E2
295,17.0,S,16.0,1.0,suit,1,,4191.0,Rspan.short,E2
296,17.0,S,16.0,2.0,flute,2,flute,4472.0,Rspan.short,E2
297,17.0,S,16.0,3.0,loot,3,loot,3919.0,Rspan.short,E2
298,17.0,S,16.0,4.0,root,4,brute,3888.0,Rspan.short,E2
299,17.0,S,16.0,5.0,brute,,,2840.0,Rspan.short,E2
300,17.0,S,17.0,0.0,bread,0,bread,3225.0,Rspan.short,E2
301,17.0,S,17.0,1.0,head,1,thread,3487.0,Rspan.short,E2
302,17.0,S,17.0,2.0,thread,2,,3655.0,Rspan.short,E2
303,17.0,S,17.0,3.0,bed,3,head,2935.0,Rspan.short,E2
304,17.0,S,18.0,0.0,pie,0,,3113.0,Rspan.short,E2
305,17.0,S,18.0,1.0,fly,1,,4032.0,Rspan.short,E2
306,17.0,S,18.0,2.0,tie,2,fly,3152.0,Rspan.short,E2
307,17.0,S,18.0,3.0,sky,3,tie,3879.0,Rspan.short,E2
308,17.0,S,18.0,4.0,eye,4,eye,3600.0,Rspan.short,E2
309,17.0,S,19.0,0.0,bone,0,bone,3121.0,Rspan.short,E2
310,17.0,S,19.0,1.0,phone,1,,3767.0,Rspan.short,E2
311,17.0,S,19.0,2.0,stone,2,stone,3776.0,Rspan.short,E2
312,17.0,S,20.0,0.0,band,0,band,3529.0,Rspan.short,E2
313,17.0,S,20.0,1.0,land,1,,4016.0,Rspan.short,E2
314,17.0,S,20.0,2.0,stand,2,stand,3047.0,Rspan.short,E2
315,17.0,S,20.0,3.0,hand,3,land,3472.0,Rspan.short,E2
316,17.0,S,21.0,0.0,king,0,,4441.0,Rspan.short,E2
317,17.0,S,21.0,1.0,ring,1,,3304.0,Rspan.short,E2
318,17.0,S,21.0,2.0,spring,2,string,3335.0,Rspan.short,E2
319,17.0,S,21.0,3.0,string,3,ring,3967.0,Rspan.short,E2
320,17.0,S,21.0,4.0,wing,,,3328.0,Rspan.short,E2
321,17.0,S,22.0,0.0,cream,0,cream,3025.0,Rspan.short,E2
322,17.0,S,22.0,1.0,team,1,team,3247.0,Rspan.short,E2
323,17.0,S,22.0,2.0,steam,2,steam,3511.0,Rspan.short,E2
324,17.0,S,23.0,0.0,deer,0,deer,4321.0,Rspan.short,E2
325,17.0,S,23.0,1.0,sphere,1,sphere,4319.0,Rspan.short,E2
326,17.0,S,23.0,2.0,ear,2,tear,3399.0,Rspan.short,E2
327,17.0,S,23.0,3.0,tear,,,3176.0,Rspan.short,E2
328,17.0,S,24.0,0.0,doll,0,,3928.0,Rspan.short,E2
329,17.0,S,24.0,1.0,ball,1,,4071.0,Rspan.short,E2
330,17.0,S,24.0,2.0,shawl,2,,2936.0,Rspan.short,E2
331,17.0,S,24.0,3.0,hall,3,stall,4031.0,Rspan.short,E2
332,17.0,S,24.0,4.0,brawl,4,wall,3320.0,Rspan.short,E2
333,17.0,S,24.0,5.0,wall,,,3159.0,Rspan.short,E2
334,17.0,S,25.0,0.0,jar,0,,4320.0,Rspan.short,E2
335,17.0,S,25.0,1.0,bar,1,,3392.0,Rspan.short,E2
336,17.0,S,25.0,2.0,car,2,,4016.0,Rspan.short,E2
337,17.0,S,25.0,3.0,scar,3,star,3975.0,Rspan.short,E2
338,17.0,S,25.0,4.0,star,,,3720.0,Rspan.short,E2
339,17.0,S,26.0,0.0,mail,0,trail,4657.0,Rspan.short,E2
340,17.0,S,26.0,1.0,sail,1,,3416.0,Rspan.short,E2
341,17.0,S,26.0,2.0,trail,2,,3031.0,Rspan.short,E2
342,17.0,S,26.0,3.0,wail,3,jail,3079.0,Rspan.short,E2
343,17.0,S,26.0,4.0,tail,4,,4015.0,Rspan.short,E2
344,17.0,S,26.0,5.0,jail,5,,4512.0,Rspan.short,E2
345,17.0,S,27.0,0.0,blouse,0,blouse,3545.0,Rspan.short,E2
346,17.0,S,27.0,1.0,house,1,house,2783.0,Rspan.short,E2
347,17.0,S,27.0,2.0,mouse,2,mouse,3112.0,Rspan.short,E2
348,19.0,P,0.0,0.0,farm,0,farm,,Rspan.short,E2
349,19.0,P,0.0,1.0,arm,1,arm,,Rspan.short,E2
350,19.0,P,1.0,0.0,bath,0,bath,,Rspan.short,E2
351,19.0,P,1.0,1.0,dawn,1,dawn,,Rspan.short,E2
352,19.0,P,2.0,0.0,earth,0,earth,,Rspan.short,E2
353,19.0,P,2.0,1.0,peach,1,peach,,Rspan.short,E2
354,19.0,P,3.0,0.0,hood,0,hood,,Rspan.short,E2
355,19.0,P,3.0,1.0,wood,1,wood,,Rspan.short,E2
356,19.0,S,4.0,0.0,king,0,king,3567.0,Rspan.short,E2
357,19.0,S,4.0,1.0,ring,1,ring,4271.0,Rspan.short,E2
358,19.0,S,4.0,2.0,spring,2,,3367.0,Rspan.short,E2
359,19.0,S,4.0,3.0,string,3,wing,4799.0,Rspan.short,E2
360,19.0,S,4.0,4.0,wing,4,,3639.0,Rspan.short,E2
361,19.0,S,5.0,0.0,doll,0,doll,3864.0,Rspan.short,E2
362,19.0,S,5.0,1.0,ball,1,shawl,3615.0,Rspan.short,E2
363,19.0,S,5.0,2.0,shawl,2,,3031.0,Rspan.short,E2
364,19.0,S,5.0,3.0,hall,3,brawl,4255.0,Rspan.short,E2
365,19.0,S,5.0,4.0,brawl,4,hall,3639.0,Rspan.short,E2
366,19.0,S,5.0,5.0,wall,5,,3295.0,Rspan.short,E2
367,19.0,S,6.0,0.0,pie,0,pie,4440.0,Rspan.short,E2
368,19.0,S,6.0,1.0,fly,1,fly,3527.0,Rspan.short,E2
369,19.0,S,6.0,2.0,tie,2,tie,3631.0,Rspan.short,E2
370,19.0,S,6.0,3.0,sky,3,eye,3431.0,Rspan.short,E2
371,19.0,S,6.0,4.0,eye,4,,4263.0,Rspan.short,E2
372,19.0,S,7.0,0.0,deer,0,deer,3416.0,Rspan.short,E2
373,19.0,S,7.0,1.0,sphere,1,,2839.0,Rspan.short,E2
374,19.0,S,7.0,2.0,ear,2,,3087.0,Rspan.short,E2
375,19.0,S,7.0,3.0,tear,3,tear,3327.0,Rspan.short,E2
376,19.0,S,8.0,0.0,band,0,band,3232.0,Rspan.short,E2
377,19.0,S,8.0,1.0,land,1,land,3439.0,Rspan.short,E2
378,19.0,S,8.0,2.0,stand,2,hand,4447.0,Rspan.short,E2
379,19.0,S,8.0,3.0,hand,3,,3503.0,Rspan.short,E2
380,19.0,S,9.0,0.0,cream,0,team,3168.0,Rspan.short,E2
381,19.0,S,9.0,1.0,team,1,cream,3087.0,Rspan.short,E2
382,19.0,S,9.0,2.0,steam,2,steam,3871.0,Rspan.short,E2
383,19.0,S,10.0,0.0,mail,0,mail,3841.0,Rspan.short,E2
384,19.0,S,10.0,1.0,sail,1,wail,5071.0,Rspan.short,E2
385,19.0,S,10.0,2.0,trail,2,tail,3743.0,Rspan.short,E2
386,19.0,S,10.0,3.0,wail,3,jail,3551.0,Rspan.short,E2
387,19.0,S,10.0,4.0,tail,4,,3415.0,Rspan.short,E2
388,19.0,S,10.0,5.0,jail,5,,3727.0,Rspan.short,E2
389,19.0,S,11.0,0.0,bread,0,bread,2976.0,Rspan.short,E2
390,19.0,S,11.0,1.0,head,1,,3559.0,Rspan.short,E2
391,19.0,S,11.0,2.0,thread,2,thread,4039.0,Rspan.short,E2
392,19.0,S,11.0,3.0,bed,3,,3815.0,Rspan.short,E2
393,19.0,S,12.0,0.0,bone,0,bone,3271.0,Rspan.short,E2
394,19.0,S,12.0,1.0,phone,1,phone,4095.0,Rspan.short,E2
395,19.0,S,12.0,2.0,stone,2,stone,3927.0,Rspan.short,E2
396,19.0,S,13.0,0.0,jar,0,jar,4872.0,Rspan.short,E2
397,19.0,S,13.0,1.0,bar,1,bar,3111.0,Rspan.short,E2
398,19.0,S,13.0,2.0,car,2,star,4367.0,Rspan.short,E2
399,19.0,S,13.0,3.0,scar,3,,3871.0,Rspan.short,E2
400,19.0,S,13.0,4.0,star,4,,4495.0,Rspan.short,E2
401,19.0,S,14.0,0.0,boot,0,boot,3976.0,Rspan.short,E2
402,19.0,S,14.0,1.0,suit,1,suit,4063.0,Rspan.short,E2
403,19.0,S,14.0,2.0,flute,2,,4023.0,Rspan.short,E2
404,19.0,S,14.0,3.0,loot,3,loot,4255.0,Rspan.short,E2
405,19.0,S,14.0,4.0,root,4,,4319.0,Rspan.short,E2
406,19.0,S,14.0,5.0,brute,5,,3191.0,Rspan.short,E2
407,19.0,S,15.0,0.0,blouse,0,blouse,3736.0,Rspan.short,E2
408,19.0,S,15.0,1.0,house,1,house,3399.0,Rspan.short,E2
409,19.0,S,15.0,2.0,mouse,2,mouse,3735.0,Rspan.short,E2
410,19.0,D,16.0,0.0,deck,0,deck,4150.0,Rspan.short,E2
411,19.0,D,16.0,1.0,slice,1,slice,4567.0,Rspan.short,E2
412,19.0,D,16.0,2.0,rat,2,rat,3103.0,Rspan.short,E2
413,19.0,D,17.0,0.0,toy,0,toy,3792.0,Rspan.short,E2
414,19.0,D,17.0,1.0,wreck,1,,4439.0,Rspan.short,E2
415,19.0,D,17.0,2.0,frown,2,frown,3319.0,Rspan.short,E2
416,19.0,D,18.0,0.0,neck,0,neck,3416.0,Rspan.short,E2
417,19.0,D,18.0,1.0,town,1,town,4855.0,Rspan.short,E2
418,19.0,D,18.0,2.0,hat,2,hat,3495.0,Rspan.short,E2
419,19.0,D,18.0,3.0,street,3,street,3551.0,Rspan.short,E2
420,19.0,D,19.0,0.0,mare,0,mare,3344.0,Rspan.short,E2
421,19.0,D,19.0,1.0,bell,1,brain,3567.0,Rspan.short,E2
422,19.0,D,19.0,2.0,brain,2,beef,2983.0,Rspan.short,E2
423,19.0,D,19.0,3.0,beef,3,,3391.0,Rspan.short,E2
424,19.0,D,20.0,0.0,spice,0,,3224.0,Rspan.short,E2
425,19.0,D,20.0,1.0,heat,1,,3071.0,Rspan.short,E2
426,19.0,D,20.0,2.0,shape,2,pear,3639.0,Rspan.short,E2
427,19.0,D,20.0,3.0,pear,3,guest,3327.0,Rspan.short,E2
428,19.0,D,20.0,4.0,guest,,,3263.0,Rspan.short,E2
429,19.0,D,21.0,0.0,ant,0,ant,2984.0,Rspan.short,E2
430,19.0,D,21.0,1.0,air,1,air,4351.0,Rspan.short,E2
431,19.0,D,21.0,2.0,ink,2,ink,3151.0,Rspan.short,E2
432,19.0,D,21.0,3.0,cloud,3,cloud,3847.0,Rspan.short,E2
433,19.0,D,21.0,4.0,seat,4,breath,3255.0,Rspan.short,E2
434,19.0,D,21.0,5.0,breath,,,3455.0,Rspan.short,E2
435,19.0,D,22.0,0.0,coin,0,,4336.0,Rspan.short,E2
436,19.0,D,22.0,1.0,film,1,,3327.0,Rspan.short,E2
437,19.0,D,22.0,2.0,leaf,2,,3935.0,Rspan.short,E2
438,19.0,D,22.0,3.0,train,3,leaf,3423.0,Rspan.short,E2
439,19.0,D,22.0,4.0,map,4,art,3735.0,Rspan.short,E2
440,19.0,D,22.0,5.0,art,5,,3391.0,Rspan.short,E2
441,19.0,D,23.0,0.0,beard,0,beard,3264.0,Rspan.short,E2
442,19.0,D,23.0,1.0,hill,1,hill,3383.0,Rspan.short,E2
443,19.0,D,23.0,2.0,dirt,2,dirt,3079.0,Rspan.short,E2
444,19.0,D,23.0,3.0,card,3,,3999.0,Rspan.short,E2
445,19.0,D,23.0,4.0,line,4,line,6367.0,Rspan.short,E2
446,19.0,D,24.0,0.0,path,0,,3200.0,Rspan.short,E2
447,19.0,D,24.0,1.0,nest,1,,3735.0,Rspan.short,E2
448,19.0,D,24.0,2.0,square,2,,3751.0,Rspan.short,E2
449,19.0,D,24.0,3.0,wood,3,beach,4319.0,Rspan.short,E2
450,19.0,D,24.0,4.0,beach,4,,4567.0,Rspan.short,E2
451,19.0,D,25.0,0.0,rice,0,rice,3728.0,Rspan.short,E2
452,19.0,D,25.0,1.0,cat,1,,4671.0,Rspan.short,E2
453,19.0,D,25.0,2.0,trash,2,cat,3151.0,Rspan.short,E2
454,19.0,D,26.0,0.0,chest,0,hair,3224.0,Rspan.short,E2
455,19.0,D,26.0,1.0,lane,1,,4799.0,Rspan.short,E2
456,19.0,D,26.0,2.0,hair,2,,3687.0,Rspan.short,E2
457,19.0,D,26.0,3.0,crown,3,,3503.0,Rspan.short,E2
458,19.0,D,27.0,0.0,shell,0,chest,3248.0,Rspan.short,E2
459,19.0,D,27.0,1.0,tree,1,,3623.0,Rspan.short,E2
460,19.0,D,27.0,2.0,bowl,2,bowl,4223.0,Rspan.short,E2
461,19.0,D,27.0,3.0,broom,3,,3871.0,Rspan.short,E2
462,19.0,D,27.0,4.0,test,4,ground,3383.0,Rspan.short,E2
463,19.0,D,27.0,5.0,ground,,,4407.0,Rspan.short,E2
464,21.0,P,0.0,0.0,farm,0,farm,,Rspan.short,E2
465,21.0,P,0.0,1.0,arm,1,arm,,Rspan.short,E2
466,21.0,P,1.0,0.0,hood,0,hood,,Rspan.short,E2
467,21.0,P,1.0,1.0,wood,1,wood,,Rspan.short,E2
468,21.0,P,2.0,0.0,earth,0,earth,,Rspan.short,E2
469,21.0,P,2.0,1.0,peach,1,peach,,Rspan.short,E2
470,21.0,P,3.0,0.0,bath,0,bath,,Rspan.short,E2
471,21.0,P,3.0,1.0,dawn,1,dawn,,Rspan.short,E2
472,21.0,D,4.0,0.0,coin,0,coin,38383.0,Rspan.short,E2
473,21.0,D,4.0,1.0,film,1,film,3975.0,Rspan.short,E2
474,21.0,D,4.0,2.0,leaf,2,,4719.0,Rspan.short,E2
475,21.0,D,4.0,3.0,train,3,,4567.0,Rspan.short,E2
476,21.0,D,4.0,4.0,map,4,art,4255.0,Rspan.short,E2
477,21.0,D,4.0,5.0,art,,,4799.0,Rspan.short,E2
478,21.0,D,5.0,0.0,shell,0,shell,3816.0,Rspan.short,E2
479,21.0,D,5.0,1.0,tree,1,tree,4527.0,Rspan.short,E2
480,21.0,D,5.0,2.0,bowl,2,,5831.0,Rspan.short,E2
481,21.0,D,5.0,3.0,broom,3,,4799.0,Rspan.short,E2
482,21.0,D,5.0,4.0,test,4,,4703.0,Rspan.short,E2
483,21.0,D,5.0,5.0,ground,,,3247.0,Rspan.short,E2
484,21.0,D,6.0,0.0,toy,0,toy,4080.0,Rspan.short,E2
485,21.0,D,6.0,1.0,wreck,1,,4431.0,Rspan.short,E2
486,21.0,D,6.0,2.0,frown,2,frown,3751.0,Rspan.short,E2
487,21.0,D,7.0,0.0,neck,0,neck,4024.0,Rspan.short,E2
488,21.0,D,7.0,1.0,town,1,town,4567.0,Rspan.short,E2
489,21.0,D,7.0,2.0,hat,2,,4351.0,Rspan.short,E2
490,21.0,D,7.0,3.0,street,3,street,4727.0,Rspan.short,E2
491,21.0,D,8.0,0.0,chest,0,chest,4536.0,Rspan.short,E2
492,21.0,D,8.0,1.0,lane,1,lane,3959.0,Rspan.short,E2
493,21.0,D,8.0,2.0,hair,2,hair,4695.0,Rspan.short,E2
494,21.0,D,8.0,3.0,crown,3,crown,4679.0,Rspan.short,E2
495,21.0,D,9.0,0.0,path,0,path,3616.0,Rspan.short,E2
496,21.0,D,9.0,1.0,nest,1,nest,4295.0,Rspan.short,E2
497,21.0,D,9.0,2.0,square,2,squarebeach,3719.0,Rspan.short,E2
498,21.0,D,9.0,3.0,wood,,,4959.0,Rspan.short,E2
499,21.0,D,9.0,4.0,beach,,,4295.0,Rspan.short,E2
500,21.0,D,10.0,0.0,rice,0,,904.0,Rspan.short,E2
501,21.0,D,10.0,1.0,cat,1,cat,7599.0,Rspan.short,E2
502,21.0,D,10.0,2.0,trash,2,trash,4423.0,Rspan.short,E2
503,21.0,D,11.0,0.0,ant,0,ant,3800.0,Rspan.short,E2
504,21.0,D,11.0,1.0,air,1,,4183.0,Rspan.short,E2
505,21.0,D,11.0,2.0,ink,2,,3751.0,Rspan.short,E2
506,21.0,D,11.0,3.0,cloud,3,seat,4575.0,Rspan.short,E2
507,21.0,D,11.0,4.0,seat,4,breath,4311.0,Rspan.short,E2
508,21.0,D,11.0,5.0,breath,,,4247.0,Rspan.short,E2
509,21.0,D,12.0,0.0,spice,0,spice,3815.0,Rspan.short,E2
510,21.0,D,12.0,1.0,heat,1,,3991.0,Rspan.short,E2
511,21.0,D,12.0,2.0,shape,2,,4575.0,Rspan.short,E2
512,21.0,D,12.0,3.0,pear,3,pear,3791.0,Rspan.short,E2
513,21.0,D,12.0,4.0,guest,4,guest,3663.0,Rspan.short,E2
514,21.0,D,13.0,0.0,deck,0,deck,3632.0,Rspan.short,E2
515,21.0,D,13.0,1.0,slice,1,slice,3943.0,Rspan.short,E2
516,21.0,D,13.0,2.0,rat,2,rat,3487.0,Rspan.short,E2
517,21.0,D,14.0,0.0,beard,0,beard,3448.0,Rspan.short,E2
518,21.0,D,14.0,1.0,hill,1,hill,4031.0,Rspan.short,E2
519,21.0,D,14.0,2.0,dirt,2,,3607.0,Rspan.short,E2
520,21.0,D,14.0,3.0,card,3,,5495.0,Rspan.short,E2
521,21.0,D,14.0,4.0,line,4,line,5903.0,Rspan.short,E2
522,21.0,D,15.0,0.0,mare,0,mare,3624.0,Rspan.short,E2
523,21.0,D,15.0,1.0,bell,1,bell,4047.0,Rspan.short,E2
524,21.0,D,15.0,2.0,brain,2,,3735.0,Rspan.short,E2
525,21.0,D,15.0,3.0,beef,3,,4103.0,Rspan.short,E2
526,21.0,S,16.0,0.0,mail,0,,4672.0,Rspan.short,E2
527,21.0,S,16.0,1.0,sail,1,,5495.0,Rspan.short,E2
528,21.0,S,16.0,2.0,trail,2,trail,4391.0,Rspan.short,E2
529,21.0,S,16.0,3.0,wail,3,wail,5095.0,Rspan.short,E2
530,21.0,S,16.0,4.0,tail,4,jail,3911.0,Rspan.short,E2
531,21.0,S,16.0,5.0,jail,5,tail,5271.0,Rspan.short,E2
532,21.0,S,17.0,0.0,king,0,king,5560.0,Rspan.short,E2
533,21.0,S,17.0,1.0,ring,1,ring,4543.0,Rspan.short,E2
534,21.0,S,17.0,2.0,spring,2,,4039.0,Rspan.short,E2
535,21.0,S,17.0,3.0,string,3,spring,3975.0,Rspan.short,E2
536,21.0,S,17.0,4.0,wing,4,,4535.0,Rspan.short,E2
537,21.0,S,18.0,0.0,jar,0,jar,3920.0,Rspan.short,E2
538,21.0,S,18.0,1.0,bar,1,bar,3079.0,Rspan.short,E2
539,21.0,S,18.0,2.0,car,2,car,4079.0,Rspan.short,E2
540,21.0,S,18.0,3.0,scar,3,,4791.0,Rspan.short,E2
541,21.0,S,18.0,4.0,star,4,star,4831.0,Rspan.short,E2
542,21.0,S,19.0,0.0,boot,0,,3976.0,Rspan.short,E2
543,21.0,S,19.0,1.0,suit,1,,4247.0,Rspan.short,E2
544,21.0,S,19.0,2.0,flute,2,,4207.0,Rspan.short,E2
545,21.0,S,19.0,3.0,loot,3,,5103.0,Rspan.short,E2
546,21.0,S,19.0,4.0,root,4,root,4983.0,Rspan.short,E2
547,21.0,S,19.0,5.0,brute,5,brute,3975.0,Rspan.short,E2
548,21.0,S,20.0,0.0,blouse,0,blouse,4240.0,Rspan.short,E2
549,21.0,S,20.0,1.0,house,1,house,3343.0,Rspan.short,E2
550,21.0,S,20.0,2.0,mouse,2,mouse,3623.0,Rspan.short,E2
551,21.0,S,21.0,0.0,bread,0,bread,3600.0,Rspan.short,E2
552,21.0,S,21.0,1.0,head,1,head,3567.0,Rspan.short,E2
553,21.0,S,21.0,2.0,thread,2,,4495.0,Rspan.short,E2
554,21.0,S,21.0,3.0,bed,3,bed,3502.0,Rspan.short,E2
555,21.0,S,22.0,0.0,pie,0,pie,4264.0,Rspan.short,E2
556,21.0,S,22.0,1.0,fly,1,fly,4839.0,Rspan.short,E2
557,21.0,S,22.0,2.0,tie,2,,4351.0,Rspan.short,E2
558,21.0,S,22.0,3.0,sky,3,eye,3967.0,Rspan.short,E2
559,21.0,S,22.0,4.0,eye,,,5015.0,Rspan.short,E2
560,21.0,S,23.0,0.0,deer,0,deer,6032.0,Rspan.short,E2
561,21.0,S,23.0,1.0,sphere,1,sphere,4151.0,Rspan.short,E2
562,21.0,S,23.0,2.0,ear,2,,3895.0,Rspan.short,E2
563,21.0,S,23.0,3.0,tear,3,tear,3559.0,Rspan.short,E2
564,21.0,S,24.0,0.0,doll,0,doll,4208.0,Rspan.short,E2
565,21.0,S,24.0,1.0,ball,1,ball,4447.0,Rspan.short,E2
566,21.0,S,24.0,2.0,shawl,2,shawl,3471.0,Rspan.short,E2
567,21.0,S,24.0,3.0,hall,,,4447.0,Rspan.short,E2
568,21.0,S,24.0,4.0,brawl,,,4583.0,Rspan.short,E2
569,21.0,S,24.0,5.0,wall,,,4703.0,Rspan.short,E2
570,21.0,S,25.0,0.0,cream,0,cream,6375.0,Rspan.short,E2
571,21.0,S,25.0,1.0,team,1,team,4111.0,Rspan.short,E2
572,21.0,S,25.0,2.0,steam,2,steam,5535.0,Rspan.short,E2
573,21.0,S,26.0,0.0,band,0,,3632.0,Rspan.short,E2
574,21.0,S,26.0,1.0,land,1,,4087.0,Rspan.short,E2
575,21.0,S,26.0,2.0,stand,2,stand,4191.0,Rspan.short,E2
576,21.0,S,26.0,3.0,hand,3,hand,4471.0,Rspan.short,E2
577,21.0,S,27.0,0.0,bone,0,bone,3598.0,Rspan.short,E2
578,21.0,S,27.0,1.0,phone,1,,4351.0,Rspan.short,E2
579,21.0,S,27.0,2.0,stone,2,stone,5463.0,Rspan.short,E2
580,23.0,P,0.0,0.0,bath,0,bath,,Rspan.short,E2
581,23.0,P,0.0,1.0,dawn,1,dawn,,Rspan.short,E2
582,23.0,P,1.0,0.0,farm,0,farm,,Rspan.short,E2
583,23.0,P,1.0,1.0,arm,1,arm,,Rspan.short,E2
584,23.0,P,2.0,0.0,hood,0,hood,,Rspan.short,E2
585,23.0,P,2.0,1.0,wood,1,wood,,Rspan.short,E2
586,23.0,P,3.0,0.0,earth,0,bed,,Rspan.short,E2
587,23.0,P,3.0,1.0,peach,1,peach,,Rspan.short,E2
588,23.0,D,4.0,0.0,ant,0,,2983.0,Rspan.short,E2
589,23.0,D,4.0,1.0,air,1,,3831.0,Rspan.short,E2
590,23.0,D,4.0,2.0,ink,2,air,3487.0,Rspan.short,E2
591,23.0,D,4.0,3.0,cloud,3,,3391.0,Rspan.short,E2
592,23.0,D,4.0,4.0,seat,4,,3439.0,Rspan.short,E2
593,23.0,D,4.0,5.0,breath,5,breath,3087.0,Rspan.short,E2
594,23.0,D,5.0,0.0,chest,0,chest,3216.0,Rspan.short,E2
595,23.0,D,5.0,1.0,lane,1,lane,3391.0,Rspan.short,E2
596,23.0,D,5.0,2.0,hair,2,hair,3615.0,Rspan.short,E2
597,23.0,D,5.0,3.0,crown,3,crown,3335.0,Rspan.short,E2
598,23.0,D,6.0,0.0,toy,0,toy,3168.0,Rspan.short,E2
599,23.0,D,6.0,1.0,wreck,1,wreck,3095.0,Rspan.short,E2
600,23.0,D,6.0,2.0,frown,2,frown,2727.0,Rspan.short,E2
601,23.0,D,7.0,0.0,spice,0,chest,3160.0,Rspan.short,E2
602,23.0,D,7.0,1.0,heat,1,heat,2479.0,Rspan.short,E2
603,23.0,D,7.0,2.0,shape,2,store,3159.0,Rspan.short,E2
604,23.0,D,7.0,3.0,pear,3,hair,3919.0,Rspan.short,E2
605,23.0,D,7.0,4.0,guest,,,2847.0,Rspan.short,E2
606,23.0,D,8.0,0.0,neck,0,,3384.0,Rspan.short,E2
607,23.0,D,8.0,1.0,town,1,,3319.0,Rspan.short,E2
608,23.0,D,8.0,2.0,hat,2,street,3551.0,Rspan.short,E2
609,23.0,D,8.0,3.0,street,3,,3039.0,Rspan.short,E2
610,23.0,D,9.0,0.0,beard,0,soap,3240.0,Rspan.short,E2
611,23.0,D,9.0,1.0,hill,1,,2919.0,Rspan.short,E2
612,23.0,D,9.0,2.0,dirt,2,,2703.0,Rspan.short,E2
613,23.0,D,9.0,3.0,card,3,game,3615.0,Rspan.short,E2
614,23.0,D,9.0,4.0,line,4,line,3751.0,Rspan.short,E2
615,23.0,D,10.0,0.0,coin,0,coal,4080.0,Rspan.short,E2
616,23.0,D,10.0,1.0,film,1,ship,3135.0,Rspan.short,E2
617,23.0,D,10.0,2.0,leaf,2,map,2911.0,Rspan.short,E2
618,23.0,D,10.0,3.0,train,3,art,3111.0,Rspan.short,E2
619,23.0,D,10.0,4.0,map,,,2975.0,Rspan.short,E2
620,23.0,D,10.0,5.0,art,,,3175.0,Rspan.short,E2
621,23.0,D,11.0,0.0,mare,0,mare,3248.0,Rspan.short,E2
622,23.0,D,11.0,1.0,bell,1,bell,2671.0,Rspan.short,E2
623,23.0,D,11.0,2.0,brain,2,brain,2535.0,Rspan.short,E2
624,23.0,D,11.0,3.0,beef,3,beef,3823.0,Rspan.short,E2
625,23.0,D,12.0,0.0,deck,0,deck,3248.0,Rspan.short,E2
626,23.0,D,12.0,1.0,slice,1,slice,2623.0,Rspan.short,E2
627,23.0,D,12.0,2.0,rat,2,rat,2407.0,Rspan.short,E2
628,23.0,D,13.0,0.0,shell,0,,3136.0,Rspan.short,E2
629,23.0,D,13.0,1.0,tree,1,,4023.0,Rspan.short,E2
630,23.0,D,13.0,2.0,bowl,2,,3487.0,Rspan.short,E2
631,23.0,D,13.0,3.0,broom,3,,3055.0,Rspan.short,E2
632,23.0,D,13.0,4.0,test,4,ground,3335.0,Rspan.short,E2
633,23.0,D,13.0,5.0,ground,,,2871.0,Rspan.short,E2
634,23.0,D,14.0,0.0,rice,0,,3528.0,Rspan.short,E2
635,23.0,D,14.0,1.0,cat,1,cat,3799.0,Rspan.short,E2
636,23.0,D,14.0,2.0,trash,2,trash,2743.0,Rspan.short,E2
637,23.0,D,15.0,0.0,path,0,,2912.0,Rspan.short,E2
638,23.0,D,15.0,1.0,nest,1,wood,3071.0,Rspan.short,E2
639,23.0,D,15.0,2.0,square,2,neck,2895.0,Rspan.short,E2
640,23.0,D,15.0,3.0,wood,3,beach,3111.0,Rspan.short,E2
641,23.0,D,15.0,4.0,beach,,,3151.0,Rspan.short,E2
642,23.0,S,16.0,0.0,boot,0,root,3431.0,Rspan.short,E2
643,23.0,S,16.0,1.0,suit,1,boot,4775.0,Rspan.short,E2
644,23.0,S,16.0,2.0,flute,2,flute,2927.0,Rspan.short,E2
645,23.0,S,16.0,3.0,loot,3,loot,3231.0,Rspan.short,E2
646,23.0,S,16.0,4.0,root,4,brute,3591.0,Rspan.short,E2
647,23.0,S,16.0,5.0,brute,,,2535.0,Rspan.short,E2
648,23.0,S,17.0,0.0,king,0,king,3273.0,Rspan.short,E2
649,23.0,S,17.0,1.0,ring,1,ring,3279.0,Rspan.short,E2
650,23.0,S,17.0,2.0,spring,2,spring,3240.0,Rspan.short,E2
651,23.0,S,17.0,3.0,string,3,wing,3647.0,Rspan.short,E2
652,23.0,S,17.0,4.0,wing,4,,3183.0,Rspan.short,E2
653,23.0,S,18.0,0.0,mail,0,mail,3584.0,Rspan.short,E2
654,23.0,S,18.0,1.0,sail,1,tail,3871.0,Rspan.short,E2
655,23.0,S,18.0,2.0,trail,2,pail,2831.0,Rspan.short,E2
656,23.0,S,18.0,3.0,wail,3,,3327.0,Rspan.short,E2
657,23.0,S,18.0,4.0,tail,4,fail,2623.0,Rspan.short,E2
658,23.0,S,18.0,5.0,jail,,,3743.0,Rspan.short,E2
659,23.0,S,19.0,0.0,bread,0,bread,3000.0,Rspan.short,E2
660,23.0,S,19.0,1.0,head,1,head,2655.0,Rspan.short,E2
661,23.0,S,19.0,2.0,thread,2,thread,2879.0,Rspan.short,E2
662,23.0,S,19.0,3.0,bed,3,bed,2951.0,Rspan.short,E2
663,23.0,S,20.0,0.0,cream,0,cream,2760.0,Rspan.short,E2
664,23.0,S,20.0,1.0,team,1,team,2567.0,Rspan.short,E2
665,23.0,S,20.0,2.0,steam,2,steam,3007.0,Rspan.short,E2
666,23.0,S,21.0,0.0,doll,0,doll,3600.0,Rspan.short,E2
667,23.0,S,21.0,1.0,ball,1,ball,3030.0,Rspan.short,E2
668,23.0,S,21.0,2.0,shawl,2,,2823.0,Rspan.short,E2
669,23.0,S,21.0,3.0,hall,3,brawl,3727.0,Rspan.short,E2
670,23.0,S,21.0,4.0,brawl,4,wall,3615.0,Rspan.short,E2
671,23.0,S,21.0,5.0,wall,,,3087.0,Rspan.short,E2
672,23.0,S,22.0,0.0,band,0,band,3064.0,Rspan.short,E2
673,23.0,S,22.0,1.0,land,1,sand,2951.0,Rspan.short,E2
674,23.0,S,22.0,2.0,stand,2,,2991.0,Rspan.short,E2
675,23.0,S,22.0,3.0,hand,3,hand,3103.0,Rspan.short,E2
676,23.0,S,23.0,0.0,blouse,0,blouse,2840.0,Rspan.short,E2
677,23.0,S,23.0,1.0,house,1,house,2496.0,Rspan.short,E2
678,23.0,S,23.0,2.0,mouse,2,mouse,2991.0,Rspan.short,E2
679,23.0,S,24.0,0.0,pie,0,pie,3152.0,Rspan.short,E2
680,23.0,S,24.0,1.0,fly,1,fly,3335.0,Rspan.short,E2
681,23.0,S,24.0,2.0,tie,2,spy,3312.0,Rspan.short,E2
682,23.0,S,24.0,3.0,sky,3,,2663.0,Rspan.short,E2
683,23.0,S,24.0,4.0,eye,,,3223.0,Rspan.short,E2
684,23.0,S,25.0,0.0,bone,0,bone,2736.0,Rspan.short,E2
685,23.0,S,25.0,1.0,phone,1,phone,4136.0,Rspan.short,E2
686,23.0,S,25.0,2.0,stone,2,stone,3551.0,Rspan.short,E2
687,23.0,S,26.0,0.0,deer,0,deer,3648.0,Rspan.short,E2
688,23.0,S,26.0,1.0,sphere,1,sphere,2823.0,Rspan.short,E2
689,23.0,S,26.0,2.0,ear,2,fear,3063.0,Rspan.short,E2
690,23.0,S,26.0,3.0,tear,3,tear,3296.0,Rspan.short,E2
691,23.0,S,27.0,0.0,jar,0,bar,4000.0,Rspan.short,E2
692,23.0,S,27.0,1.0,bar,1,,2631.0,Rspan.short,E2
693,23.0,S,27.0,2.0,car,2,star,3326.0,Rspan.short,E2
694,23.0,S,27.0,3.0,scar,3,far,3431.0,Rspan.short,E2
695,23.0,S,27.0,4.0,star,,,4087.0,Rspan.short,E2
696,25.0,P,0.0,0.0,earth,0,earth,,Rspan.short,E2
697,25.0,P,0.0,1.0,peach,1,peach,,Rspan.short,E2
698,25.0,P,1.0,0.0,hood,0,hood,,Rspan.short,E2
699,25.0,P,1.0,1.0,wood,1,wood,,Rspan.short,E2
700,25.0,P,2.0,0.0,bath,0,bath,,Rspan.short,E2
701,25.0,P,2.0,1.0,dawn,1,dawn,,Rspan.short,E2
702,25.0,P,3.0,0.0,farm,0,farm,,Rspan.short,E2
703,25.0,P,3.0,1.0,arm,1,arm,,Rspan.short,E2
704,25.0,S,4.0,0.0,pie,0,pie,3647.0,Rspan.short,E2
705,25.0,S,4.0,1.0,fly,1,fly,4087.0,Rspan.short,E2
706,25.0,S,4.0,2.0,tie,2,tie,3815.0,Rspan.short,E2
707,25.0,S,4.0,3.0,sky,3,sky,4175.0,Rspan.short,E2
708,25.0,S,4.0,4.0,eye,4,,4815.0,Rspan.short,E2
709,25.0,S,5.0,0.0,jar,0,jar,3824.0,Rspan.short,E2
710,25.0,S,5.0,1.0,bar,1,bar,3335.0,Rspan.short,E2
711,25.0,S,5.0,2.0,car,2,car,3975.0,Rspan.short,E2
712,25.0,S,5.0,3.0,scar,3,scar,4159.0,Rspan.short,E2
713,25.0,S,5.0,4.0,star,4,star,4663.0,Rspan.short,E2
714,25.0,S,6.0,0.0,king,0,king,3880.0,Rspan.short,E2
715,25.0,S,6.0,1.0,ring,1,ring,3799.0,Rspan.short,E2
716,25.0,S,6.0,2.0,spring,2,,3639.0,Rspan.short,E2
717,25.0,S,6.0,3.0,string,3,spring,4719.0,Rspan.short,E2
718,25.0,S,6.0,4.0,wing,4,wing,4527.0,Rspan.short,E2
719,25.0,S,7.0,0.0,blouse,0,blouse,3584.0,Rspan.short,E2
720,25.0,S,7.0,1.0,house,1,house,3343.0,Rspan.short,E2
721,25.0,S,7.0,2.0,mouse,2,mouse,3615.0,Rspan.short,E2
722,25.0,S,8.0,0.0,deer,0,deer,4416.0,Rspan.short,E2
723,25.0,S,8.0,1.0,sphere,1,sphere,3447.0,Rspan.short,E2
724,25.0,S,8.0,2.0,ear,2,ear,3575.0,Rspan.short,E2
725,25.0,S,8.0,3.0,tear,3,tear,3935.0,Rspan.short,E2
726,25.0,S,9.0,0.0,mail,0,mail,4032.0,Rspan.short,E2
727,25.0,S,9.0,1.0,sail,1,sail,4407.0,Rspan.short,E2
728,25.0,S,9.0,2.0,trail,2,,4071.0,Rspan.short,E2
729,25.0,S,9.0,3.0,wail,3,wail,3791.0,Rspan.short,E2
730,25.0,S,9.0,4.0,tail,4,tail,4039.0,Rspan.short,E2
731,25.0,S,9.0,5.0,jail,5,jail,4223.0,Rspan.short,E2
732,25.0,S,10.0,0.0,cream,0,cream,3776.0,Rspan.short,E2
733,25.0,S,10.0,1.0,team,1,team,3614.0,Rspan.short,E2
734,25.0,S,10.0,2.0,steam,2,steam,4159.0,Rspan.short,E2
735,25.0,S,11.0,0.0,band,0,band,3800.0,Rspan.short,E2
736,25.0,S,11.0,1.0,land,1,land,3679.0,Rspan.short,E2
737,25.0,S,11.0,2.0,stand,2,stand,3751.0,Rspan.short,E2
738,25.0,S,11.0,3.0,hand,3,hand,3927.0,Rspan.short,E2
739,25.0,S,12.0,0.0,doll,0,doll,4512.0,Rspan.short,E2
740,25.0,S,12.0,1.0,ball,1,ball,3999.0,Rspan.short,E2
741,25.0,S,12.0,2.0,shawl,2,,4135.0,Rspan.short,E2
742,25.0,S,12.0,3.0,hall,3,hall,4463.0,Rspan.short,E2
743,25.0,S,12.0,4.0,brawl,4,brawl,4967.0,Rspan.short,E2
744,25.0,S,12.0,5.0,wall,5,wall,4295.0,Rspan.short,E2
745,25.0,S,13.0,0.0,bread,0,bread,3624.0,Rspan.short,E2
746,25.0,S,13.0,1.0,head,1,head,3583.0,Rspan.short,E2
747,25.0,S,13.0,2.0,thread,2,thread,4351.0,Rspan.short,E2
748,25.0,S,13.0,3.0,bed,3,bed,4399.0,Rspan.short,E2
749,25.0,S,14.0,0.0,boot,0,boot,3856.0,Rspan.short,E2
750,25.0,S,14.0,1.0,suit,1,suit,3783.0,Rspan.short,E2
751,25.0,S,14.0,2.0,flute,2,flute,4767.0,Rspan.short,E2
752,25.0,S,14.0,3.0,loot,3,loot,5551.0,Rspan.short,E2
753,25.0,S,14.0,4.0,root,4,root,4135.0,Rspan.short,E2
754,25.0,S,14.0,5.0,brute,5,,3527.0,Rspan.short,E2
755,25.0,S,15.0,0.0,bone,0,bone,3640.0,Rspan.short,E2
756,25.0,S,15.0,1.0,phone,1,phone,3759.0,Rspan.short,E2
757,25.0,S,15.0,2.0,stone,2,stone,5575.0,Rspan.short,E2
758,25.0,D,16.0,0.0,shell,0,,3992.0,Rspan.short,E2
759,25.0,D,16.0,1.0,tree,1,,6631.0,Rspan.short,E2
760,25.0,D,16.0,2.0,bowl,2,bowl,5735.0,Rspan.short,E2
761,25.0,D,16.0,3.0,broom,3,test,4239.0,Rspan.short,E2
762,25.0,D,16.0,4.0,test,4,,3967.0,Rspan.short,E2
763,25.0,D,16.0,5.0,ground,5,ground,3160.0,Rspan.short,E2
764,25.0,D,17.0,0.0,rice,0,rice,4072.0,Rspan.short,E2
765,25.0,D,17.0,1.0,cat,1,cat,4351.0,Rspan.short,E2
766,25.0,D,17.0,2.0,trash,2,trash,4639.0,Rspan.short,E2
767,25.0,D,18.0,0.0,chest,0,chest,3800.0,Rspan.short,E2
768,25.0,D,18.0,1.0,lane,1,lane,4543.0,Rspan.short,E2
769,25.0,D,18.0,2.0,hair,2,hair,5103.0,Rspan.short,E2
770,25.0,D,18.0,3.0,crown,3,crown,4439.0,Rspan.short,E2
771,25.0,D,19.0,0.0,deck,0,deck,3710.0,Rspan.short,E2
772,25.0,D,19.0,1.0,slice,1,slice,4688.0,Rspan.short,E2
773,25.0,D,19.0,2.0,rat,2,rat,3543.0,Rspan.short,E2
774,25.0,D,20.0,0.0,neck,0,neck,4256.0,Rspan.short,E2
775,25.0,D,20.0,1.0,town,1,town,3791.0,Rspan.short,E2
776,25.0,D,20.0,2.0,hat,2,hat,5031.0,Rspan.short,E2
777,25.0,D,20.0,3.0,street,3,street,4367.0,Rspan.short,E2
778,25.0,D,21.0,0.0,ant,0,ant,3944.0,Rspan.short,E2
779,25.0,D,21.0,1.0,air,1,air,4047.0,Rspan.short,E2
780,25.0,D,21.0,2.0,ink,2,ink,3704.0,Rspan.short,E2
781,25.0,D,21.0,3.0,cloud,3,cloud,4295.0,Rspan.short,E2
782,25.0,D,21.0,4.0,seat,4,seat,4175.0,Rspan.short,E2
783,25.0,D,21.0,5.0,breath,5,breath,4607.0,Rspan.short,E2
784,25.0,D,22.0,0.0,path,0,path,4121.0,Rspan.short,E2
785,25.0,D,22.0,1.0,nest,1,nest,3775.0,Rspan.short,E2
786,25.0,D,22.0,2.0,square,2,square,3895.0,Rspan.short,E2
787,25.0,D,22.0,3.0,wood,3,wood,4455.0,Rspan.short,E2
788,25.0,D,22.0,4.0,beach,4,beach,3936.0,Rspan.short,E2
789,25.0,D,23.0,0.0,beard,0,beard,3992.0,Rspan.short,E2
790,25.0,D,23.0,1.0,hill,1,hill,3727.0,Rspan.short,E2
791,25.0,D,23.0,2.0,dirt,2,dirt,3655.0,Rspan.short,E2
792,25.0,D,23.0,3.0,card,3,line,4783.0,Rspan.short,E2
793,25.0,D,23.0,4.0,line,,,5600.0,Rspan.short,E2
794,25.0,D,24.0,0.0,spice,0,spice,3856.0,Rspan.short,E2
795,25.0,D,24.0,1.0,heat,1,heat,3558.0,Rspan.short,E2
796,25.0,D,24.0,2.0,shape,2,shape,5512.0,Rspan.short,E2
797,25.0,D,24.0,3.0,pear,3,pear,4319.0,Rspan.short,E2
798,25.0,D,24.0,4.0,guest,4,guest,3928.0,Rspan.short,E2
799,25.0,D,25.0,0.0,coin,0,coin,4929.0,Rspan.short,E2
800,25.0,D,25.0,1.0,film,1,film,4023.0,Rspan.short,E2
801,25.0,D,25.0,2.0,leaf,2,leaf,3632.0,Rspan.short,E2
802,25.0,D,25.0,3.0,train,3,train,3928.0,Rspan.short,E2
803,25.0,D,25.0,4.0,map,4,map,3255.0,Rspan.short,E2
804,25.0,D,25.0,5.0,art,5,art,3967.0,Rspan.short,E2
805,25.0,D,26.0,0.0,toy,0,toy,4233.0,Rspan.short,E2
806,25.0,D,26.0,1.0,wreck,1,wreck,3607.0,Rspan.short,E2
807,25.0,D,26.0,2.0,frown,2,frown,3423.0,Rspan.short,E2
808,25.0,D,27.0,0.0,mare,0,mare,3424.0,Rspan.short,E2
809,25.0,D,27.0,1.0,bell,1,bell,3471.0,Rspan.short,E2
810,25.0,D,27.0,2.0,brain,2,brain,3336.0,Rspan.short,E2
811,25.0,D,27.0,3.0,beef,3,beef,4263.0,Rspan.short,E2
812,27.0,P,0.0,0.0,farm,0,farm,,Rspan.short,E2
813,27.0,P,0.0,1.0,arm,1,arm,,Rspan.short,E2
814,27.0,P,1.0,0.0,earth,0,earth,,Rspan.short,E2
815,27.0,P,1.0,1.0,peach,1,peach,,Rspan.short,E2
816,27.0,P,2.0,0.0,hood,0,,,Rspan.short,E2
817,27.0,P,2.0,1.0,wood,1,wood,,Rspan.short,E2
818,27.0,P,3.0,0.0,bath,0,bath,,Rspan.short,E2
819,27.0,P,3.0,1.0,dawn,1,dawn,,Rspan.short,E2
820,27.0,S,4.0,0.0,pie,0,pie,3583.0,Rspan.short,E2
821,27.0,S,4.0,1.0,fly,1,fly,4543.0,Rspan.short,E2
822,27.0,S,4.0,2.0,tie,2,tie,4471.0,Rspan.short,E2
823,27.0,S,4.0,3.0,sky,3,sky,3631.0,Rspan.short,E2
824,27.0,S,4.0,4.0,eye,,,3815.0,Rspan.short,E2
825,27.0,S,5.0,0.0,king,0,king,4192.0,Rspan.short,E2
826,27.0,S,5.0,1.0,ring,1,ring,3991.0,Rspan.short,E2
827,27.0,S,5.0,2.0,spring,2,spring,3279.0,Rspan.short,E2
828,27.0,S,5.0,3.0,string,3,string,3647.0,Rspan.short,E2
829,27.0,S,5.0,4.0,wing,4,,4511.0,Rspan.short,E2
830,27.0,S,6.0,0.0,blouse,0,blouse,4216.0,Rspan.short,E2
831,27.0,S,6.0,1.0,house,1,house,3423.0,Rspan.short,E2
832,27.0,S,6.0,2.0,mouse,2,mouse,3135.0,Rspan.short,E2
833,27.0,S,7.0,0.0,mail,0,,5112.0,Rspan.short,E2
834,27.0,S,7.0,1.0,sail,1,sail,4406.0,Rspan.short,E2
835,27.0,S,7.0,2.0,trail,2,tail,4367.0,Rspan.short,E2
836,27.0,S,7.0,3.0,wail,,,3903.0,Rspan.short,E2
837,27.0,S,7.0,4.0,tail,,,3175.0,Rspan.short,E2
838,27.0,S,7.0,5.0,jail,,,4199.0,Rspan.short,E2
839,27.0,S,8.0,0.0,band,0,band,4336.0,Rspan.short,E2
840,27.0,S,8.0,1.0,land,1,land,4503.0,Rspan.short,E2
841,27.0,S,8.0,2.0,stand,2,stand,5295.0,Rspan.short,E2
842,27.0,S,8.0,3.0,hand,,,3871.0,Rspan.short,E2
843,27.0,S,9.0,0.0,bone,0,phone,8560.0,Rspan.short,E2
844,27.0,S,9.0,1.0,phone,1,stone,4591.0,Rspan.short,E2
845,27.0,S,9.0,2.0,stone,,,4071.0,Rspan.short,E2
846,27.0,S,10.0,0.0,cream,0,cream,4015.0,Rspan.short,E2
847,27.0,S,10.0,1.0,team,1,team,3567.0,Rspan.short,E2
848,27.0,S,10.0,2.0,steam,2,steam,4863.0,Rspan.short,E2
849,27.0,S,11.0,0.0,boot,0,boot,4456.0,Rspan.short,E2
850,27.0,S,11.0,1.0,suit,1,loot,4447.0,Rspan.short,E2
851,27.0,S,11.0,2.0,flute,2,suit,4527.0,Rspan.short,E2
852,27.0,S,11.0,3.0,loot,3,,4239.0,Rspan.short,E2
853,27.0,S,11.0,4.0,root,4,brute,4375.0,Rspan.short,E2
854,27.0,S,11.0,5.0,brute,,,3287.0,Rspan.short,E2
855,27.0,S,12.0,0.0,deer,0,dear,5240.0,Rspan.short,E2
856,27.0,S,12.0,1.0,sphere,1,sphere,3615.0,Rspan.short,E2
857,27.0,S,12.0,2.0,ear,2,,3735.0,Rspan.short,E2
858,27.0,S,12.0,3.0,tear,3,tear,4015.0,Rspan.short,E2
859,27.0,S,13.0,0.0,bread,0,bread,4184.0,Rspan.short,E2
860,27.0,S,13.0,1.0,head,1,head,3223.0,Rspan.short,E2
861,27.0,S,13.0,2.0,thread,2,,3583.0,Rspan.short,E2
862,27.0,S,13.0,3.0,bed,3,bed,3839.0,Rspan.short,E2
863,27.0,S,14.0,0.0,jar,0,jar,4408.0,Rspan.short,E2
864,27.0,S,14.0,1.0,bar,1,bar,3303.0,Rspan.short,E2
865,27.0,S,14.0,2.0,car,2,scar,3879.0,Rspan.short,E2
866,27.0,S,14.0,3.0,scar,3,star,3751.0,Rspan.short,E2
867,27.0,S,14.0,4.0,star,,,3927.0,Rspan.short,E2
868,27.0,S,15.0,0.0,doll,0,doll,4728.0,Rspan.short,E2
869,27.0,S,15.0,1.0,ball,1,ball,3943.0,Rspan.short,E2
870,27.0,S,15.0,2.0,shawl,2,stall,3271.0,Rspan.short,E2
871,27.0,S,15.0,3.0,hall,3,,4447.0,Rspan.short,E2
872,27.0,S,15.0,4.0,brawl,4,wall,4271.0,Rspan.short,E2
873,27.0,S,15.0,5.0,wall,,,3375.0,Rspan.short,E2
874,27.0,D,16.0,0.0,path,0,path,4384.0,Rspan.short,E2
875,27.0,D,16.0,1.0,nest,1,,3519.0,Rspan.short,E2
876,27.0,D,16.0,2.0,square,2,wood,5423.0,Rspan.short,E2
877,27.0,D,16.0,3.0,wood,3,,3711.0,Rspan.short,E2
878,27.0,D,16.0,4.0,beach,4,beach,3143.0,Rspan.short,E2
879,27.0,D,17.0,0.0,mare,0,mare,3992.0,Rspan.short,E2
880,27.0,D,17.0,1.0,bell,1,,3887.0,Rspan.short,E2
881,27.0,D,17.0,2.0,brain,2,brain,4151.0,Rspan.short,E2
882,27.0,D,17.0,3.0,beef,3,,3975.0,Rspan.short,E2
883,27.0,D,18.0,0.0,shell,0,,4240.0,Rspan.short,E2
884,27.0,D,18.0,1.0,tree,1,,4607.0,Rspan.short,E2
885,27.0,D,18.0,2.0,bowl,2,,4471.0,Rspan.short,E2
886,27.0,D,18.0,3.0,broom,3,ground,5639.0,Rspan.short,E2
887,27.0,D,18.0,4.0,test,,,3935.0,Rspan.short,E2
888,27.0,D,18.0,5.0,ground,,,3239.0,Rspan.short,E2
889,27.0,D,19.0,0.0,spice,0,spice,3752.0,Rspan.short,E2
890,27.0,D,19.0,1.0,heat,1,heat,3247.0,Rspan.short,E2
891,27.0,D,19.0,2.0,shape,2,,3271.0,Rspan.short,E2
892,27.0,D,19.0,3.0,pear,3,guest,3807.0,Rspan.short,E2
893,27.0,D,19.0,4.0,guest,,,3687.0,Rspan.short,E2
894,27.0,D,20.0,0.0,coin,0,coin,5384.0,Rspan.short,E2
895,27.0,D,20.0,1.0,film,1,,4047.0,Rspan.short,E2
896,27.0,D,20.0,2.0,leaf,2,,3767.0,Rspan.short,E2
897,27.0,D,20.0,3.0,train,3,,3983.0,Rspan.short,E2
898,27.0,D,20.0,4.0,map,4,art,3375.0,Rspan.short,E2
899,27.0,D,20.0,5.0,art,,,4159.0,Rspan.short,E2
900,27.0,D,21.0,0.0,toy,0,toy,3904.0,Rspan.short,E2
901,27.0,D,21.0,1.0,wreck,1,wrech,3863.0,Rspan.short,E2
902,27.0,D,21.0,2.0,frown,2,frown,3591.0,Rspan.short,E2
903,27.0,D,22.0,0.0,beard,0,beard,4152.0,Rspan.short,E2
904,27.0,D,22.0,1.0,hill,1,hill,3751.0,Rspan.short,E2
905,27.0,D,22.0,2.0,dirt,2,,3670.0,Rspan.short,E2
906,27.0,D,22.0,3.0,card,3,line,4279.0,Rspan.short,E2
907,27.0,D,22.0,4.0,line,,,5711.0,Rspan.short,E2
908,27.0,D,23.0,0.0,rice,0,rice,4408.0,Rspan.short,E2
909,27.0,D,23.0,1.0,cat,1,cat,5487.0,Rspan.short,E2
910,27.0,D,23.0,2.0,trash,2,trash,3127.0,Rspan.short,E2
911,27.0,D,24.0,0.0,ant,0,ant,3472.0,Rspan.short,E2
912,27.0,D,24.0,1.0,air,1,,4103.0,Rspan.short,E2
913,27.0,D,24.0,2.0,ink,2,cloud,4007.0,Rspan.short,E2
914,27.0,D,24.0,3.0,cloud,3,,3839.0,Rspan.short,E2
915,27.0,D,24.0,4.0,seat,4,breath,4767.0,Rspan.short,E2
916,27.0,D,24.0,5.0,breath,,,3703.0,Rspan.short,E2
917,27.0,D,25.0,0.0,neck,0,,4056.0,Rspan.short,E2
918,27.0,D,25.0,1.0,town,1,town,4807.0,Rspan.short,E2
919,27.0,D,25.0,2.0,hat,2,hat,3855.0,Rspan.short,E2
920,27.0,D,25.0,3.0,street,3,street,4000.0,Rspan.short,E2
921,27.0,D,26.0,0.0,deck,0,deck,3273.0,Rspan.short,E2
922,27.0,D,26.0,1.0,slice,1,slice,4255.0,Rspan.short,E2
923,27.0,D,26.0,2.0,rat,2,rat,3303.0,Rspan.short,E2
924,27.0,D,27.0,0.0,chest,0,chest,3961.0,Rspan.short,E2
925,27.0,D,27.0,1.0,lane,1,,4456.0,Rspan.short,E2
926,27.0,D,27.0,2.0,hair,2,,4936.0,Rspan.short,E2
927,27.0,D,27.0,3.0,crown,3,hair,4047.0,Rspan.short,E2
928,29.0,P,0.0,0.0,farm,0,mittens,,Rspan.short,E2
929,29.0,P,0.0,1.0,arm,1,mud,,Rspan.short,E2
930,29.0,P,1.0,0.0,bath,0,bath,,Rspan.short,E2
931,29.0,P,1.0,1.0,dawn,1,,,Rspan.short,E2
932,29.0,P,2.0,0.0,earth,0,earth,,Rspan.short,E2
933,29.0,P,2.0,1.0,peach,1,peach,,Rspan.short,E2
934,29.0,P,3.0,0.0,hood,0,hood,,Rspan.short,E2
935,29.0,P,3.0,1.0,wood,1,wood,,Rspan.short,E2
936,29.0,D,4.0,0.0,neck,0,neck,3167.0,Rspan.short,E2
937,29.0,D,4.0,1.0,town,1,town,3271.0,Rspan.short,E2
938,29.0,D,4.0,2.0,hat,2,hat,4095.0,Rspan.short,E2
939,29.0,D,4.0,3.0,street,3,street,3535.0,Rspan.short,E2
940,29.0,D,5.0,0.0,coin,0,coin,4400.0,Rspan.short,E2
941,29.0,D,5.0,1.0,film,1,film,3247.0,Rspan.short,E2
942,29.0,D,5.0,2.0,leaf,2,leaf,3375.0,Rspan.short,E2
943,29.0,D,5.0,3.0,train,3,train,3759.0,Rspan.short,E2
944,29.0,D,5.0,4.0,map,4,art,2935.0,Rspan.short,E2
945,29.0,D,5.0,5.0,art,,,3855.0,Rspan.short,E2
946,29.0,D,6.0,0.0,mare,0,mare,2936.0,Rspan.short,E2
947,29.0,D,6.0,1.0,bell,1,bell,3247.0,Rspan.short,E2
948,29.0,D,6.0,2.0,brain,2,brain,3047.0,Rspan.short,E2
949,29.0,D,6.0,3.0,beef,3,beef,3959.0,Rspan.short,E2
950,29.0,D,7.0,0.0,spice,0,spice,3368.0,Rspan.short,E2
951,29.0,D,7.0,1.0,heat,1,heat,3127.0,Rspan.short,E2
952,29.0,D,7.0,2.0,shape,2,peach,4327.0,Rspan.short,E2
953,29.0,D,7.0,3.0,pear,3,guess,3471.0,Rspan.short,E2
954,29.0,D,7.0,4.0,guest,,,3215.0,Rspan.short,E2
955,29.0,D,8.0,0.0,ant,0,ant,3720.0,Rspan.short,E2
956,29.0,D,8.0,1.0,air,1,air,3495.0,Rspan.short,E2
957,29.0,D,8.0,2.0,ink,2,cloud,3279.0,Rspan.short,E2
958,29.0,D,8.0,3.0,cloud,3,,3487.0,Rspan.short,E2
959,29.0,D,8.0,4.0,seat,4,breath,3543.0,Rspan.short,E2
960,29.0,D,8.0,5.0,breath,,,3199.0,Rspan.short,E2
961,29.0,D,9.0,0.0,chest,0,chest,3359.0,Rspan.short,E2
962,29.0,D,9.0,1.0,lane,1,lane,4215.0,Rspan.short,E2
963,29.0,D,9.0,2.0,hair,2,hair,3831.0,Rspan.short,E2
964,29.0,D,9.0,3.0,crown,3,crown,3463.0,Rspan.short,E2
965,29.0,D,10.0,0.0,deck,0,deck,3192.0,Rspan.short,E2
966,29.0,D,10.0,1.0,slice,1,slice,2983.0,Rspan.short,E2
967,29.0,D,10.0,2.0,rat,2,rat,2911.0,Rspan.short,E2
968,29.0,D,11.0,0.0,shell,0,shell,3104.0,Rspan.short,E2
969,29.0,D,11.0,1.0,tree,1,tree,3815.0,Rspan.short,E2
970,29.0,D,11.0,2.0,bowl,2,bowl,3511.0,Rspan.short,E2
971,29.0,D,11.0,3.0,broom,3,,3767.0,Rspan.short,E2
972,29.0,D,11.0,4.0,test,4,test,3511.0,Rspan.short,E2
973,29.0,D,11.0,5.0,ground,5,ground,3079.0,Rspan.short,E2
974,29.0,D,12.0,0.0,toy,0,toy,3176.0,Rspan.short,E2
975,29.0,D,12.0,1.0,wreck,1,wreck,3415.0,Rspan.short,E2
976,29.0,D,12.0,2.0,frown,2,frown,2855.0,Rspan.short,E2
977,29.0,D,13.0,0.0,rice,0,rice,3408.0,Rspan.short,E2
978,29.0,D,13.0,1.0,cat,1,cat,3407.0,Rspan.short,E2
979,29.0,D,13.0,2.0,trash,2,trash,4015.0,Rspan.short,E2
980,29.0,D,14.0,0.0,path,0,path,3008.0,Rspan.short,E2
981,29.0,D,14.0,1.0,nest,1,nest,3311.0,Rspan.short,E2
982,29.0,D,14.0,2.0,square,2,square,3039.0,Rspan.short,E2
983,29.0,D,14.0,3.0,wood,3,wood,3543.0,Rspan.short,E2
984,29.0,D,14.0,4.0,beach,4,beach,3975.0,Rspan.short,E2
985,29.0,D,15.0,0.0,beard,0,beard,2904.0,Rspan.short,E2
986,29.0,D,15.0,1.0,hill,1,hill,2983.0,Rspan.short,E2
987,29.0,D,15.0,2.0,dirt,2,ground,3743.0,Rspan.short,E2
988,29.0,D,15.0,3.0,card,3,card,4567.0,Rspan.short,E2
989,29.0,D,15.0,4.0,line,4,line,3783.0,Rspan.short,E2
990,29.0,S,16.0,0.0,king,0,king,3136.0,Rspan.short,E2
991,29.0,S,16.0,1.0,ring,1,ring,3311.0,Rspan.short,E2
992,29.0,S,16.0,2.0,spring,2,spring,3511.0,Rspan.short,E2
993,29.0,S,16.0,3.0,string,3,string,3655.0,Rspan.short,E2
994,29.0,S,16.0,4.0,wing,4,ring,4151.0,Rspan.short,E2
995,29.0,S,17.0,0.0,band,0,band,2816.0,Rspan.short,E2
996,29.0,S,17.0,1.0,land,1,land,3591.0,Rspan.short,E2
997,29.0,S,17.0,2.0,stand,2,stand,3079.0,Rspan.short,E2
998,29.0,S,17.0,3.0,hand,3,hand,3255.0,Rspan.short,E2
999,29.0,S,18.0,0.0,pie,0,pie,2976.0,Rspan.short,E2
1000,29.0,S,18.0,1.0,fly,1,fly,3679.0,Rspan.short,E2
1001,29.0,S,18.0,2.0,tie,2,tie,2966.0,Rspan.short,E2
1002,29.0,S,18.0,3.0,sky,3,,2567.0,Rspan.short,E2
1003,29.0,S,18.0,4.0,eye,4,eye,4127.0,Rspan.short,E2
1004,29.0,S,19.0,0.0,boot,0,boot,3961.0,Rspan.short,E2
1005,29.0,S,19.0,1.0,suit,1,suit,3383.0,Rspan.short,E2
1006,29.0,S,19.0,2.0,flute,2,flute,3007.0,Rspan.short,E2
1007,29.0,S,19.0,3.0,loot,3,loot,3663.0,Rspan.short,E2
1008,29.0,S,19.0,4.0,root,4,brute,3863.0,Rspan.short,E2
1009,29.0,S,19.0,5.0,brute,5,,2807.0,Rspan.short,E2
1010,29.0,S,20.0,0.0,bread,0,bread,3056.0,Rspan.short,E2
1011,29.0,S,20.0,1.0,head,1,head,2511.0,Rspan.short,E2
1012,29.0,S,20.0,2.0,thread,2,thread,3447.0,Rspan.short,E2
1013,29.0,S,20.0,3.0,bed,3,bed,3023.0,Rspan.short,E2
1014,29.0,S,21.0,0.0,cream,0,cream,2760.0,Rspan.short,E2
1015,29.0,S,21.0,1.0,team,1,team,3023.0,Rspan.short,E2
1016,29.0,S,21.0,2.0,steam,2,steam,3295.0,Rspan.short,E2
1017,29.0,S,22.0,0.0,doll,0,doll,3848.0,Rspan.short,E2
1018,29.0,S,22.0,1.0,ball,1,ball,3119.0,Rspan.short,E2
1019,29.0,S,22.0,2.0,shawl,2,shawl,2879.0,Rspan.short,E2
1020,29.0,S,22.0,3.0,hall,3,hall,3871.0,Rspan.short,E2
1021,29.0,S,22.0,4.0,brawl,4,brawl,3151.0,Rspan.short,E2
1022,29.0,S,22.0,5.0,wall,5,wall,3159.0,Rspan.short,E2
1023,29.0,S,23.0,0.0,deer,0,deer,3000.0,Rspan.short,E2
1024,29.0,S,23.0,1.0,sphere,1,sphere,3391.0,Rspan.short,E2
1025,29.0,S,23.0,2.0,ear,2,,3247.0,Rspan.short,E2
1026,29.0,S,23.0,3.0,tear,3,tear,3559.0,Rspan.short,E2
1027,29.0,S,24.0,0.0,bone,0,bone,2472.0,Rspan.short,E2
1028,29.0,S,24.0,1.0,phone,1,phone,3719.0,Rspan.short,E2
1029,29.0,S,24.0,2.0,stone,2,stone,4383.0,Rspan.short,E2
1030,29.0,S,25.0,0.0,mail,0,mail,3576.0,Rspan.short,E2
1031,29.0,S,25.0,1.0,sail,1,sail,3503.0,Rspan.short,E2
1032,29.0,S,25.0,2.0,trail,2,wail,3319.0,Rspan.short,E2
1033,29.0,S,25.0,3.0,wail,3,tail,3455.0,Rspan.short,E2
1034,29.0,S,25.0,4.0,tail,4,,2655.0,Rspan.short,E2
1035,29.0,S,25.0,5.0,jail,5,,4191.0,Rspan.short,E2
1036,29.0,S,26.0,0.0,blouse,0,blouse,2768.0,Rspan.short,E2
1037,29.0,S,26.0,1.0,house,1,house,2583.0,Rspan.short,E2
1038,29.0,S,26.0,2.0,mouse,2,mouse,3095.0,Rspan.short,E2
1039,29.0,S,27.0,0.0,jar,0,jar,3112.0,Rspan.short,E2
1040,29.0,S,27.0,1.0,bar,1,bar,2655.0,Rspan.short,E2
1041,29.0,S,27.0,2.0,car,2,car,3775.0,Rspan.short,E2
1042,29.0,S,27.0,3.0,scar,3,,4095.0,Rspan.short,E2
1043,29.0,S,27.0,4.0,star,4,star,3263.0,Rspan.short,E2
1044,31.0,P,0.0,0.0,farm,0,farm,,Rspan.short,E2
1045,31.0,P,0.0,1.0,arm,1,arm,,Rspan.short,E2
1046,31.0,P,1.0,0.0,hood,0,hood,,Rspan.short,E2
1047,31.0,P,1.0,1.0,wood,1,wood,,Rspan.short,E2
1048,31.0,P,2.0,0.0,bath,0,bath,,Rspan.short,E2
1049,31.0,P,2.0,1.0,dawn,1,dawn,,Rspan.short,E2
1050,31.0,P,3.0,0.0,earth,0,earth,,Rspan.short,E2
1051,31.0,P,3.0,1.0,peach,1,peach,,Rspan.short,E2
1052,31.0,D,4.0,0.0,spice,0,spice,3598.0,Rspan.short,E2
1053,31.0,D,4.0,1.0,heat,1,,3679.0,Rspan.short,E2
1054,31.0,D,4.0,2.0,shape,2,,4263.0,Rspan.short,E2
1055,31.0,D,4.0,3.0,pear,3,guest,3391.0,Rspan.short,E2
1056,31.0,D,4.0,4.0,guest,,,3271.0,Rspan.short,E2
1057,31.0,D,5.0,0.0,mare,0,mare,3368.0,Rspan.short,E2
1058,31.0,D,5.0,1.0,bell,1,brain,3088.0,Rspan.short,E2
1059,31.0,D,5.0,2.0,brain,2,,3711.0,Rspan.short,E2
1060,31.0,D,5.0,3.0,beef,3,beef,4464.0,Rspan.short,E2
1061,31.0,D,6.0,0.0,ant,0,ant,3769.0,Rspan.short,E2
1062,31.0,D,6.0,1.0,air,1,ant,4319.0,Rspan.short,E2
1063,31.0,D,6.0,2.0,ink,2,,3743.0,Rspan.short,E2
1064,31.0,D,6.0,3.0,cloud,3,,4095.0,Rspan.short,E2
1065,31.0,D,6.0,4.0,seat,4,,3704.0,Rspan.short,E2
1066,31.0,D,6.0,5.0,breath,5,breadth,3551.0,Rspan.short,E2
1067,31.0,D,7.0,0.0,coin,0,,5328.0,Rspan.short,E2
1068,31.0,D,7.0,1.0,film,1,leaf,4520.0,Rspan.short,E2
1069,31.0,D,7.0,2.0,leaf,2,,4567.0,Rspan.short,E2
1070,31.0,D,7.0,3.0,train,3,,4103.0,Rspan.short,E2
1071,31.0,D,7.0,4.0,map,4,art,3359.0,Rspan.short,E2
1072,31.0,D,7.0,5.0,art,5,,5447.0,Rspan.short,E2
1073,31.0,D,8.0,0.0,rice,0,,4441.0,Rspan.short,E2
1074,31.0,D,8.0,1.0,cat,1,art,4759.0,Rspan.short,E2
1075,31.0,D,8.0,2.0,trash,2,trash,3575.0,Rspan.short,E2
1076,31.0,D,9.0,0.0,shell,0,,3656.0,Rspan.short,E2
1077,31.0,D,9.0,1.0,tree,1,,8655.0,Rspan.short,E2
1078,31.0,D,9.0,2.0,bowl,2,,4398.0,Rspan.short,E2
1079,31.0,D,9.0,3.0,broom,3,test,3864.0,Rspan.short,E2
1080,31.0,D,9.0,4.0,test,4,ground,3984.0,Rspan.short,E2
1081,31.0,D,9.0,5.0,ground,,,4295.0,Rspan.short,E2
1082,31.0,D,10.0,0.0,neck,0,neck,4288.0,Rspan.short,E2
1083,31.0,D,10.0,1.0,town,1,town,3896.0,Rspan.short,E2
1084,31.0,D,10.0,2.0,hat,2,,4271.0,Rspan.short,E2
1085,31.0,D,10.0,3.0,street,3,street,5415.0,Rspan.short,E2
1086,31.0,D,11.0,0.0,toy,0,,3760.0,Rspan.short,E2
1087,31.0,D,11.0,1.0,wreck,1,wreck,4119.0,Rspan.short,E2
1088,31.0,D,11.0,2.0,frown,2,frown,3879.0,Rspan.short,E2
1089,31.0,D,12.0,0.0,chest,0,chest,4000.0,Rspan.short,E2
1090,31.0,D,12.0,1.0,lane,1,lane,4879.0,Rspan.short,E2
1091,31.0,D,12.0,2.0,hair,2,,4256.0,Rspan.short,E2
1092,31.0,D,12.0,3.0,crown,3,crown,4335.0,Rspan.short,E2
1093,31.0,D,13.0,0.0,path,0,,3344.0,Rspan.short,E2
1094,31.0,D,13.0,1.0,nest,1,,4255.0,Rspan.short,E2
1095,31.0,D,13.0,2.0,square,2,,3895.0,Rspan.short,E2
1096,31.0,D,13.0,3.0,wood,3,beach,4088.0,Rspan.short,E2
1097,31.0,D,13.0,4.0,beach,,,5071.0,Rspan.short,E2
1098,31.0,D,14.0,0.0,beard,0,beard,3960.0,Rspan.short,E2
1099,31.0,D,14.0,1.0,hill,1,hill,3439.0,Rspan.short,E2
1100,31.0,D,14.0,2.0,dirt,2,,3527.0,Rspan.short,E2
1101,31.0,D,14.0,3.0,card,3,,4335.0,Rspan.short,E2
1102,31.0,D,14.0,4.0,line,4,line,4223.0,Rspan.short,E2
1103,31.0,D,15.0,0.0,deck,0,deck,2928.0,Rspan.short,E2
1104,31.0,D,15.0,1.0,slice,1,slice,3615.0,Rspan.short,E2
1105,31.0,D,15.0,2.0,rat,2,rat,3256.0,Rspan.short,E2
1106,31.0,S,16.0,0.0,blouse,0,blouse,3761.0,Rspan.short,E2
1107,31.0,S,16.0,1.0,house,1,house,2880.0,Rspan.short,E2
1108,31.0,S,16.0,2.0,mouse,2,mouse,3111.0,Rspan.short,E2
1109,31.0,S,17.0,0.0,doll,0,doll,3704.0,Rspan.short,E2
1110,31.0,S,17.0,1.0,ball,1,hall,3696.0,Rspan.short,E2
1111,31.0,S,17.0,2.0,shawl,2,shawl,3471.0,Rspan.short,E2
1112,31.0,S,17.0,3.0,hall,3,wall,5255.0,Rspan.short,E2
1113,31.0,S,17.0,4.0,brawl,4,brawl,4247.0,Rspan.short,E2
1114,31.0,S,17.0,5.0,wall,5,,4040.0,Rspan.short,E2
1115,31.0,S,18.0,0.0,king,0,king,3920.0,Rspan.short,E2
1116,31.0,S,18.0,1.0,ring,1,ring,3944.0,Rspan.short,E2
1117,31.0,S,18.0,2.0,spring,2,spring,3311.0,Rspan.short,E2
1118,31.0,S,18.0,3.0,string,3,,4240.0,Rspan.short,E2
1119,31.0,S,18.0,4.0,wing,4,,3623.0,Rspan.short,E2
1120,31.0,S,19.0,0.0,pie,0,,3241.0,Rspan.short,E2
1121,31.0,S,19.0,1.0,fly,1,,3991.0,Rspan.short,E2
1122,31.0,S,19.0,2.0,tie,2,,4655.0,Rspan.short,E2
1123,31.0,S,19.0,3.0,sky,3,eye,3839.0,Rspan.short,E2
1124,31.0,S,19.0,4.0,eye,,,4032.0,Rspan.short,E2
1125,31.0,S,20.0,0.0,deer,0,deer,3688.0,Rspan.short,E2
1126,31.0,S,20.0,1.0,sphere,1,spere,3304.0,Rspan.short,E2
1127,31.0,S,20.0,2.0,ear,2,rear,3640.0,Rspan.short,E2
1128,31.0,S,20.0,3.0,tear,3,ear,6039.0,Rspan.short,E2
1129,31.0,S,21.0,0.0,mail,0,sail,6856.0,Rspan.short,E2
1130,31.0,S,21.0,1.0,sail,1,mail,5151.0,Rspan.short,E2
1131,31.0,S,21.0,2.0,trail,2,,3720.0,Rspan.short,E2
1132,31.0,S,21.0,3.0,wail,3,wail,3527.0,Rspan.short,E2
1133,31.0,S,21.0,4.0,tail,4,,4176.0,Rspan.short,E2
1134,31.0,S,21.0,5.0,jail,5,jail,3767.0,Rspan.short,E2
1135,31.0,S,22.0,0.0,jar,0,jar,4047.0,Rspan.short,E2
1136,31.0,S,22.0,1.0,bar,1,bar,3120.0,Rspan.short,E2
1137,31.0,S,22.0,2.0,car,2,car,4176.0,Rspan.short,E2
1138,31.0,S,22.0,3.0,scar,3,,4815.0,Rspan.short,E2
1139,31.0,S,22.0,4.0,star,4,,5855.0,Rspan.short,E2
1140,31.0,S,23.0,0.0,boot,0,boot,5032.0,Rspan.short,E2
1141,31.0,S,23.0,1.0,suit,1,suit,4944.0,Rspan.short,E2
1142,31.0,S,23.0,2.0,flute,2,,4327.0,Rspan.short,E2
1143,31.0,S,23.0,3.0,loot,3,root,3896.0,Rspan.short,E2
1144,31.0,S,23.0,4.0,root,4,brute,5991.0,Rspan.short,E2
1145,31.0,S,23.0,5.0,brute,,,3639.0,Rspan.short,E2
1146,31.0,S,24.0,0.0,bread,0,bread,3912.0,Rspan.short,E2
1147,31.0,S,24.0,1.0,head,1,,5416.0,Rspan.short,E2
1148,31.0,S,24.0,2.0,thread,2,,4159.0,Rspan.short,E2
1149,31.0,S,24.0,3.0,bed,3,thread,3800.0,Rspan.short,E2
1150,31.0,S,25.0,0.0,cream,0,cream,3881.0,Rspan.short,E2
1151,31.0,S,25.0,1.0,team,1,team,3535.0,Rspan.short,E2
1152,31.0,S,25.0,2.0,steam,2,steam,4287.0,Rspan.short,E2
1153,31.0,S,26.0,0.0,band,0,band,3816.0,Rspan.short,E2
1154,31.0,S,26.0,1.0,land,1,land,4215.0,Rspan.short,E2
1155,31.0,S,26.0,2.0,stand,2,stand,3592.0,Rspan.short,E2
1156,31.0,S,26.0,3.0,hand,3,hand,3663.0,Rspan.short,E2
1157,31.0,S,27.0,0.0,bone,0,bone,3377.0,Rspan.short,E2
1158,31.0,S,27.0,1.0,phone,1,phone,4287.0,Rspan.short,E2
1159,31.0,S,27.0,2.0,stone,2,stone,4992.0,Rspan.short,E2
1160,33.0,P,0.0,0.0,farm,0,farm,,Rspan.short,E2
1161,33.0,P,0.0,1.0,arm,1,arm,,Rspan.short,E2
1162,33.0,P,1.0,0.0,bath,0,bath,,Rspan.short,E2
1163,33.0,P,1.0,1.0,dawn,1,dawn,,Rspan.short,E2
1164,33.0,P,2.0,0.0,hood,0,hood,,Rspan.short,E2
1165,33.0,P,2.0,1.0,wood,1,wood,,Rspan.short,E2
1166,33.0,P,3.0,0.0,earth,0,earth,,Rspan.short,E2
1167,33.0,P,3.0,1.0,peach,1,peach,,Rspan.short,E2
1168,33.0,D,4.0,0.0,deck,0,deck,3079.0,Rspan.short,E2
1169,33.0,D,4.0,1.0,slice,1,slice,3647.0,Rspan.short,E2
1170,33.0,D,4.0,2.0,rat,2,rat,3135.0,Rspan.short,E2
1171,33.0,D,5.0,0.0,mare,0,,4004.0,Rspan.short,E2
1172,33.0,D,5.0,1.0,bell,1,,2751.0,Rspan.short,E2
1173,33.0,D,5.0,2.0,brain,2,brain,2991.0,Rspan.short,E2
1174,33.0,D,5.0,3.0,beef,3,beef,3942.0,Rspan.short,E2
1175,33.0,D,6.0,0.0,shell,0,,3452.0,Rspan.short,E2
1176,33.0,D,6.0,1.0,tree,1,,4183.0,Rspan.short,E2
1177,33.0,D,6.0,2.0,bowl,2,,3263.0,Rspan.short,E2
1178,33.0,D,6.0,3.0,broom,3,,3727.0,Rspan.short,E2
1179,33.0,D,6.0,4.0,test,4,,3663.0,Rspan.short,E2
1180,33.0,D,6.0,5.0,ground,5,test,2895.0,Rspan.short,E2
1181,33.0,D,7.0,0.0,rice,0,,3932.0,Rspan.short,E2
1182,33.0,D,7.0,1.0,cat,1,,3887.0,Rspan.short,E2
1183,33.0,D,7.0,2.0,trash,2,trash,3455.0,Rspan.short,E2
1184,33.0,D,8.0,0.0,beard,0,beard,3628.0,Rspan.short,E2
1185,33.0,D,8.0,1.0,hill,1,,3135.0,Rspan.short,E2
1186,33.0,D,8.0,2.0,dirt,2,dirt,3111.0,Rspan.short,E2
1187,33.0,D,8.0,3.0,card,3,,4223.0,Rspan.short,E2
1188,33.0,D,8.0,4.0,line,4,,5399.0,Rspan.short,E2
1189,33.0,D,9.0,0.0,toy,0,,3436.0,Rspan.short,E2
1190,33.0,D,9.0,1.0,wreck,1,wreck,3967.0,Rspan.short,E2
1191,33.0,D,9.0,2.0,frown,2,frown,2679.0,Rspan.short,E2
1192,33.0,D,10.0,0.0,coin,0,,4388.0,Rspan.short,E2
1193,33.0,D,10.0,1.0,film,1,leaf,3231.0,Rspan.short,E2
1194,33.0,D,10.0,2.0,leaf,2,,4119.0,Rspan.short,E2
1195,33.0,D,10.0,3.0,train,3,map,3727.0,Rspan.short,E2
1196,33.0,D,10.0,4.0,map,,,3023.0,Rspan.short,E2
1197,33.0,D,10.0,5.0,art,,,3303.0,Rspan.short,E2
1198,33.0,D,11.0,0.0,neck,0,,3988.0,Rspan.short,E2
1199,33.0,D,11.0,1.0,town,1,,3887.0,Rspan.short,E2
1200,33.0,D,11.0,2.0,hat,2,hat,3535.0,Rspan.short,E2
1201,33.0,D,11.0,3.0,street,3,street,3663.0,Rspan.short,E2
1202,33.0,D,12.0,0.0,ant,0,ant,3235.0,Rspan.short,E2
1203,33.0,D,12.0,1.0,air,1,,3935.0,Rspan.short,E2
1204,33.0,D,12.0,2.0,ink,2,,2927.0,Rspan.short,E2
1205,33.0,D,12.0,3.0,cloud,3,breath,3847.0,Rspan.short,E2
1206,33.0,D,12.0,4.0,seat,,,5055.0,Rspan.short,E2
1207,33.0,D,12.0,5.0,breath,,,3383.0,Rspan.short,E2
1208,33.0,D,13.0,0.0,chest,0,,3516.0,Rspan.short,E2
1209,33.0,D,13.0,1.0,lane,1,,4431.0,Rspan.short,E2
1210,33.0,D,13.0,2.0,hair,2,hair,4511.0,Rspan.short,E2
1211,33.0,D,13.0,3.0,crown,3,crown,3423.0,Rspan.short,E2
1212,33.0,D,14.0,0.0,path,0,,2884.0,Rspan.short,E2
1213,33.0,D,14.0,1.0,nest,1,,4110.0,Rspan.short,E2
1214,33.0,D,14.0,2.0,square,2,,3735.0,Rspan.short,E2
1215,33.0,D,14.0,3.0,wood,3,wood,3711.0,Rspan.short,E2
1216,33.0,D,14.0,4.0,beach,4,beach,3655.0,Rspan.short,E2
1217,33.0,D,15.0,0.0,spice,0,,3500.0,Rspan.short,E2
1218,33.0,D,15.0,1.0,heat,1,,3247.0,Rspan.short,E2
1219,33.0,D,15.0,2.0,shape,2,pear,3431.0,Rspan.short,E2
1220,33.0,D,15.0,3.0,pear,3,guest,3599.0,Rspan.short,E2
1221,33.0,D,15.0,4.0,guest,,,3039.0,Rspan.short,E2
1222,33.0,S,16.0,0.0,mail,0,,4412.0,Rspan.short,E2
1223,33.0,S,16.0,1.0,sail,1,,5263.0,Rspan.short,E2
1224,33.0,S,16.0,2.0,trail,2,,3079.0,Rspan.short,E2
1225,33.0,S,16.0,3.0,wail,3,wail,3551.0,Rspan.short,E2
1226,33.0,S,16.0,4.0,tail,4,pail,4039.0,Rspan.short,E2
1227,33.0,S,16.0,5.0,jail,,,4415.0,Rspan.short,E2
1228,33.0,S,17.0,0.0,band,0,,3428.0,Rspan.short,E2
1229,33.0,S,17.0,1.0,land,1,,3791.0,Rspan.short,E2
1230,33.0,S,17.0,2.0,stand,2,stand,2903.0,Rspan.short,E2
1231,33.0,S,17.0,3.0,hand,3,hand,3455.0,Rspan.short,E2
1232,33.0,S,18.0,0.0,jar,0,,3316.0,Rspan.short,E2
1233,33.0,S,18.0,1.0,bar,1,,3063.0,Rspan.short,E2
1234,33.0,S,18.0,2.0,car,2,jar,3047.0,Rspan.short,E2
1235,33.0,S,18.0,3.0,scar,3,scar,3615.0,Rspan.short,E2
1236,33.0,S,18.0,4.0,star,4,star,7111.0,Rspan.short,E2
1237,33.0,S,19.0,0.0,boot,0,,4092.0,Rspan.short,E2
1238,33.0,S,19.0,1.0,suit,1,,3687.0,Rspan.short,E2
1239,33.0,S,19.0,2.0,flute,2,flute,3887.0,Rspan.short,E2
1240,33.0,S,19.0,3.0,loot,3,,4247.0,Rspan.short,E2
1241,33.0,S,19.0,4.0,root,4,root,5103.0,Rspan.short,E2
1242,33.0,S,19.0,5.0,brute,5,brute,3927.0,Rspan.short,E2
1243,33.0,S,20.0,0.0,pie,0,,3788.0,Rspan.short,E2
1244,33.0,S,20.0,1.0,fly,1,,6655.0,Rspan.short,E2
1245,33.0,S,20.0,2.0,tie,2,tie,2783.0,Rspan.short,E2
1246,33.0,S,20.0,3.0,sky,3,fly,5015.0,Rspan.short,E2
1247,33.0,S,20.0,4.0,eye,4,eye,3623.0,Rspan.short,E2
1248,33.0,S,21.0,0.0,blouse,0,house,4444.0,Rspan.short,E2
1249,33.0,S,21.0,1.0,house,1,blouse,2983.0,Rspan.short,E2
1250,33.0,S,21.0,2.0,mouse,2,mouse,3127.0,Rspan.short,E2
1251,33.0,S,22.0,0.0,bone,0,,3756.0,Rspan.short,E2
1252,33.0,S,22.0,1.0,phone,1,,4159.0,Rspan.short,E2
1253,33.0,S,22.0,2.0,stone,2,stone,3919.0,Rspan.short,E2
1254,33.0,S,23.0,0.0,bread,0,,3364.0,Rspan.short,E2
1255,33.0,S,23.0,1.0,head,1,bread,2879.0,Rspan.short,E2
1256,33.0,S,23.0,2.0,thread,2,,3831.0,Rspan.short,E2
1257,33.0,S,23.0,3.0,bed,3,bed,3143.0,Rspan.short,E2
1258,33.0,S,24.0,0.0,cream,0,,3380.0,Rspan.short,E2
1259,33.0,S,24.0,1.0,team,1,,2743.0,Rspan.short,E2
1260,33.0,S,24.0,2.0,steam,2,steam,3983.0,Rspan.short,E2
1261,33.0,S,25.0,0.0,deer,0,,3956.0,Rspan.short,E2
1262,33.0,S,25.0,1.0,sphere,1,,3095.0,Rspan.short,E2
1263,33.0,S,25.0,2.0,ear,2,ear,3135.0,Rspan.short,E2
1264,33.0,S,25.0,3.0,tear,3,tear,2895.0,Rspan.short,E2
1265,33.0,S,26.0,0.0,king,0,king,3300.0,Rspan.short,E2
1266,33.0,S,26.0,1.0,ring,1,ring,3503.0,Rspan.short,E2
1267,33.0,S,26.0,2.0,spring,2,spring,3719.0,Rspan.short,E2
1268,33.0,S,26.0,3.0,string,3,string,3463.0,Rspan.short,E2
1269,33.0,S,26.0,4.0,wing,4,wing,3231.0,Rspan.short,E2
1270,33.0,S,27.0,0.0,doll,0,doll,3876.0,Rspan.short,E2
1271,33.0,S,27.0,1.0,ball,1,ball,3287.0,Rspan.short,E2
1272,33.0,S,27.0,2.0,shawl,2,shawl,3079.0,Rspan.short,E2
1273,33.0,S,27.0,3.0,hall,,,3775.0,Rspan.short,E2
1274,33.0,S,27.0,4.0,brawl,,,3055.0,Rspan.short,E2
1275,33.0,S,27.0,5.0,wall,,,3855.0,Rspan.short,E2
1276,35.0,P,0.0,0.0,earth,0,earth,,Rspan.short,E2
1277,35.0,P,0.0,1.0,peach,1,peach,,Rspan.short,E2
1278,35.0,P,1.0,0.0,hood,0,wood,,Rspan.short,E2
1279,35.0,P,1.0,1.0,wood,1,wood,,Rspan.short,E2
1280,35.0,P,2.0,0.0,bath,0,bath,,Rspan.short,E2
1281,35.0,P,2.0,1.0,dawn,1,dawn,,Rspan.short,E2
1282,35.0,P,3.0,0.0,farm,0,farm,,Rspan.short,E2
1283,35.0,P,3.0,1.0,arm,1,arm,,Rspan.short,E2
1284,35.0,D,4.0,0.0,shell,0,,3631.0,Rspan.short,E2
1285,35.0,D,4.0,1.0,tree,1,bowl,4024.0,Rspan.short,E2
1286,35.0,D,4.0,2.0,bowl,2,,6720.0,Rspan.short,E2
1287,35.0,D,4.0,3.0,broom,3,,6800.0,Rspan.short,E2
1288,35.0,D,4.0,4.0,test,4,ground,3935.0,Rspan.short,E2
1289,35.0,D,4.0,5.0,ground,,,3496.0,Rspan.short,E2
1290,35.0,D,5.0,0.0,deck,0,,3649.0,Rspan.short,E2
1291,35.0,D,5.0,1.0,slice,1,deck,3759.0,Rspan.short,E2
1292,35.0,D,5.0,2.0,rat,2,rat,3344.0,Rspan.short,E2
1293,35.0,D,6.0,0.0,path,0,,3265.0,Rspan.short,E2
1294,35.0,D,6.0,1.0,nest,1,path,4760.0,Rspan.short,E2
1295,35.0,D,6.0,2.0,square,2,,5144.0,Rspan.short,E2
1296,35.0,D,6.0,3.0,wood,3,beach,4952.0,Rspan.short,E2
1297,35.0,D,6.0,4.0,beach,,,5192.0,Rspan.short,E2
1298,35.0,D,7.0,0.0,coin,0,,4583.0,Rspan.short,E2
1299,35.0,D,7.0,1.0,film,1,leaf,3856.0,Rspan.short,E2
1300,35.0,D,7.0,2.0,leaf,2,,6496.0,Rspan.short,E2
1301,35.0,D,7.0,3.0,train,3,map,4192.0,Rspan.short,E2
1302,35.0,D,7.0,4.0,map,4,art,4023.0,Rspan.short,E2
1303,35.0,D,7.0,5.0,art,,,3544.0,Rspan.short,E2
1304,35.0,D,8.0,0.0,beard,0,beard,3689.0,Rspan.short,E2
1305,35.0,D,8.0,1.0,hill,1,,3136.0,Rspan.short,E2
1306,35.0,D,8.0,2.0,dirt,2,,3792.0,Rspan.short,E2
1307,35.0,D,8.0,3.0,card,3,line,4424.0,Rspan.short,E2
1308,35.0,D,8.0,4.0,line,,,4632.0,Rspan.short,E2
1309,35.0,D,9.0,0.0,toy,0,toy,3497.0,Rspan.short,E2
1310,35.0,D,9.0,1.0,wreck,1,deck,4039.0,Rspan.short,E2
1311,35.0,D,9.0,2.0,frown,2,frown,4552.0,Rspan.short,E2
1312,35.0,D,10.0,0.0,mare,0,mare,3352.0,Rspan.short,E2
1313,35.0,D,10.0,1.0,bell,1,,2952.0,Rspan.short,E2
1314,35.0,D,10.0,2.0,brain,2,,3624.0,Rspan.short,E2
1315,35.0,D,10.0,3.0,beef,3,beef,3936.0,Rspan.short,E2
1316,35.0,D,11.0,0.0,ant,0,,3697.0,Rspan.short,E2
1317,35.0,D,11.0,1.0,air,1,,3831.0,Rspan.short,E2
1318,35.0,D,11.0,2.0,ink,2,,3760.0,Rspan.short,E2
1319,35.0,D,11.0,3.0,cloud,3,,5160.0,Rspan.short,E2
1320,35.0,D,11.0,4.0,seat,4,breath,3424.0,Rspan.short,E2
1321,35.0,D,11.0,5.0,breath,,,3216.0,Rspan.short,E2
1322,35.0,D,12.0,0.0,rice,0,rice,3713.0,Rspan.short,E2
1323,35.0,D,12.0,1.0,cat,1,cat,5416.0,Rspan.short,E2
1324,35.0,D,12.0,2.0,trash,2,,4400.0,Rspan.short,E2
1325,35.0,D,13.0,0.0,spice,0,,4321.0,Rspan.short,E2
1326,35.0,D,13.0,1.0,heat,1,,3656.0,Rspan.short,E2
1327,35.0,D,13.0,2.0,shape,2,pear,3520.0,Rspan.short,E2
1328,35.0,D,13.0,3.0,pear,3,guest,3071.0,Rspan.short,E2
1329,35.0,D,13.0,4.0,guest,,,3991.0,Rspan.short,E2
1330,35.0,D,14.0,0.0,chest,0,,4777.0,Rspan.short,E2
1331,35.0,D,14.0,1.0,lane,1,,5848.0,Rspan.short,E2
1332,35.0,D,14.0,2.0,hair,2,,4496.0,Rspan.short,E2
1333,35.0,D,14.0,3.0,crown,3,hair,4032.0,Rspan.short,E2
1334,35.0,D,15.0,0.0,neck,0,,3665.0,Rspan.short,E2
1335,35.0,D,15.0,1.0,town,1,,3736.0,Rspan.short,E2
1336,35.0,D,15.0,2.0,hat,2,hat,3904.0,Rspan.short,E2
1337,35.0,D,15.0,3.0,street,3,street,3976.0,Rspan.short,E2
1338,35.0,S,16.0,0.0,king,0,king,3752.0,Rspan.short,E2
1339,35.0,S,16.0,1.0,ring,1,,5376.0,Rspan.short,E2
1340,35.0,S,16.0,2.0,spring,2,string,4632.0,Rspan.short,E2
1341,35.0,S,16.0,3.0,string,3,wing,3296.0,Rspan.short,E2
1342,35.0,S,16.0,4.0,wing,,,4112.0,Rspan.short,E2
1343,35.0,S,17.0,0.0,cream,0,cream,4305.0,Rspan.short,E2
1344,35.0,S,17.0,1.0,team,1,,3416.0,Rspan.short,E2
1345,35.0,S,17.0,2.0,steam,2,steam,4607.0,Rspan.short,E2
1346,35.0,S,18.0,0.0,bone,0,bone,3577.0,Rspan.short,E2
1347,35.0,S,18.0,1.0,phone,1,phone,4128.0,Rspan.short,E2
1348,35.0,S,18.0,2.0,stone,2,stone,4080.0,Rspan.short,E2
1349,35.0,S,19.0,0.0,blouse,0,blouse,3985.0,Rspan.short,E2
1350,35.0,S,19.0,1.0,house,1,house,3824.0,Rspan.short,E2
1351,35.0,S,19.0,2.0,mouse,2,mouse,4112.0,Rspan.short,E2
1352,35.0,S,20.0,0.0,boot,0,,4545.0,Rspan.short,E2
1353,35.0,S,20.0,1.0,suit,1,,4048.0,Rspan.short,E2
1354,35.0,S,20.0,2.0,flute,2,flute,4680.0,Rspan.short,E2
1355,35.0,S,20.0,3.0,loot,3,root,4119.0,Rspan.short,E2
1356,35.0,S,20.0,4.0,root,4,,4912.0,Rspan.short,E2
1357,35.0,S,20.0,5.0,brute,5,brute,3671.0,Rspan.short,E2
1358,35.0,S,21.0,0.0,jar,0,bar,4217.0,Rspan.short,E2
1359,35.0,S,21.0,1.0,bar,1,jar,3688.0,Rspan.short,E2
1360,35.0,S,21.0,2.0,car,2,,3848.0,Rspan.short,E2
1361,35.0,S,21.0,3.0,scar,3,star,4896.0,Rspan.short,E2
1362,35.0,S,21.0,4.0,star,,,4680.0,Rspan.short,E2
1363,35.0,S,22.0,0.0,mail,0,mail,4833.0,Rspan.short,E2
1364,35.0,S,22.0,1.0,sail,1,trail,4864.0,Rspan.short,E2
1365,35.0,S,22.0,2.0,trail,2,,4096.0,Rspan.short,E2
1366,35.0,S,22.0,3.0,wail,3,jail,4903.0,Rspan.short,E2
1367,35.0,S,22.0,4.0,tail,,,3296.0,Rspan.short,E2
1368,35.0,S,22.0,5.0,jail,,,3440.0,Rspan.short,E2
1369,35.0,S,23.0,0.0,doll,0,doll,4113.0,Rspan.short,E2
1370,35.0,S,23.0,1.0,ball,1,ball,3631.0,Rspan.short,E2
1371,35.0,S,23.0,2.0,shawl,2,brawl,3607.0,Rspan.short,E2
1372,35.0,S,23.0,3.0,hall,3,wall,4568.0,Rspan.short,E2
1373,35.0,S,23.0,4.0,brawl,,,4071.0,Rspan.short,E2
1374,35.0,S,23.0,5.0,wall,,,3719.0,Rspan.short,E2
1375,35.0,S,24.0,0.0,pie,0,pie,3280.0,Rspan.short,E2
1376,35.0,S,24.0,1.0,fly,1,,4863.0,Rspan.short,E2
1377,35.0,S,24.0,2.0,tie,2,sky,4136.0,Rspan.short,E2
1378,35.0,S,24.0,3.0,sky,3,eye,3591.0,Rspan.short,E2
1379,35.0,S,24.0,4.0,eye,,,4311.0,Rspan.short,E2
1380,35.0,S,25.0,0.0,deer,0,deer,4721.0,Rspan.short,E2
1381,35.0,S,25.0,1.0,sphere,1,sphere,4272.0,Rspan.short,E2
1382,35.0,S,25.0,2.0,ear,2,,3952.0,Rspan.short,E2
1383,35.0,S,25.0,3.0,tear,3,tear,3199.0,Rspan.short,E2
1384,35.0,S,26.0,0.0,bread,0,,2721.0,Rspan.short,E2
1385,35.0,S,26.0,1.0,head,1,thread,4455.0,Rspan.short,E2
1386,35.0,S,26.0,2.0,thread,2,bed,4280.0,Rspan.short,E2
1387,35.0,S,26.0,3.0,bed,,,3768.0,Rspan.short,E2
1388,35.0,S,27.0,0.0,band,0,band,3777.0,Rspan.short,E2
1389,35.0,S,27.0,1.0,land,1,land,3712.0,Rspan.short,E2
1390,35.0,S,27.0,2.0,stand,2,,4400.0,Rspan.short,E2
1391,35.0,S,27.0,3.0,hand,3,hand,3927.0,Rspan.short,E2
1392,37.0,P,0.0,0.0,earth,0,earth,,Rspan.short,E2
1393,37.0,P,0.0,1.0,peach,1,peach,,Rspan.short,E2
1394,37.0,P,1.0,0.0,farm,0,farm,,Rspan.short,E2
1395,37.0,P,1.0,1.0,arm,1,arm,,Rspan.short,E2
1396,37.0,P,2.0,0.0,hood,0,hood,,Rspan.short,E2
1397,37.0,P,2.0,1.0,wood,1,wood,,Rspan.short,E2
1398,37.0,P,3.0,0.0,bath,0,bath,,Rspan.short,E2
1399,37.0,P,3.0,1.0,dawn,1,dawn,,Rspan.short,E2
1400,37.0,D,4.0,0.0,neck,0,neck,3543.0,Rspan.short,E2
1401,37.0,D,4.0,1.0,town,1,town,3895.0,Rspan.short,E2
1402,37.0,D,4.0,2.0,hat,2,hat,3791.0,Rspan.short,E2
1403,37.0,D,4.0,3.0,street,3,street,4439.0,Rspan.short,E2
1404,37.0,D,5.0,0.0,mare,0,mare,3032.0,Rspan.short,E2
1405,37.0,D,5.0,1.0,bell,1,bell,3279.0,Rspan.short,E2
1406,37.0,D,5.0,2.0,brain,2,brain,3575.0,Rspan.short,E2
1407,37.0,D,5.0,3.0,beef,3,beef,3919.0,Rspan.short,E2
1408,37.0,D,6.0,0.0,toy,0,toy,3944.0,Rspan.short,E2
1409,37.0,D,6.0,1.0,wreck,1,wreck,3479.0,Rspan.short,E2
1410,37.0,D,6.0,2.0,frown,2,frown,3183.0,Rspan.short,E2
1411,37.0,D,7.0,0.0,shell,0,shell,3152.0,Rspan.short,E2
1412,37.0,D,7.0,1.0,tree,1,frown,4670.0,Rspan.short,E2
1413,37.0,D,7.0,2.0,bowl,2,,4495.0,Rspan.short,E2
1414,37.0,D,7.0,3.0,broom,,,3967.0,Rspan.short,E2
1415,37.0,D,7.0,4.0,test,,,3295.0,Rspan.short,E2
1416,37.0,D,7.0,5.0,ground,,,3367.0,Rspan.short,E2
1417,37.0,D,8.0,0.0,rice,0,rice,3200.0,Rspan.short,E2
1418,37.0,D,8.0,1.0,cat,1,cat,3327.0,Rspan.short,E2
1419,37.0,D,8.0,2.0,trash,2,trash,3335.0,Rspan.short,E2
1420,37.0,D,9.0,0.0,coin,0,coin,3520.0,Rspan.short,E2
1421,37.0,D,9.0,1.0,film,1,film,4095.0,Rspan.short,E2
1422,37.0,D,9.0,2.0,leaf,2,leaf,3447.0,Rspan.short,E2
1423,37.0,D,9.0,3.0,train,3,tree,3927.0,Rspan.short,E2
1424,37.0,D,9.0,4.0,map,4,,3279.0,Rspan.short,E2
1425,37.0,D,9.0,5.0,art,5,art,3703.0,Rspan.short,E2
1426,37.0,D,10.0,0.0,beard,0,beard,2992.0,Rspan.short,E2
1427,37.0,D,10.0,1.0,hill,1,hill,2871.0,Rspan.short,E2
1428,37.0,D,10.0,2.0,dirt,2,dirt,3463.0,Rspan.short,E2
1429,37.0,D,10.0,3.0,card,3,,3567.0,Rspan.short,E2
1430,37.0,D,10.0,4.0,line,4,line,3095.0,Rspan.short,E2
1431,37.0,D,11.0,0.0,deck,0,deck,2592.0,Rspan.short,E2
1432,37.0,D,11.0,1.0,slice,1,slice,2535.0,Rspan.short,E2
1433,37.0,D,11.0,2.0,rat,2,rat,2711.0,Rspan.short,E2
1434,37.0,D,12.0,0.0,path,0,path,2521.0,Rspan.short,E2
1435,37.0,D,12.0,1.0,nest,1,nest,2679.0,Rspan.short,E2
1436,37.0,D,12.0,2.0,square,2,square,3263.0,Rspan.short,E2
1437,37.0,D,12.0,3.0,wood,3,wood,3335.0,Rspan.short,E2
1438,37.0,D,12.0,4.0,beach,4,beach,3159.0,Rspan.short,E2
1439,37.0,D,13.0,0.0,ant,0,ant,2512.0,Rspan.short,E2
1440,37.0,D,13.0,1.0,air,1,air,3111.0,Rspan.short,E2
1441,37.0,D,13.0,2.0,ink,2,bat,2958.0,Rspan.short,E2
1442,37.0,D,13.0,3.0,cloud,3,,2911.0,Rspan.short,E2
1443,37.0,D,13.0,4.0,seat,4,,3735.0,Rspan.short,E2
1444,37.0,D,13.0,5.0,breath,5,breath,3607.0,Rspan.short,E2
1445,37.0,D,14.0,0.0,spice,0,spice,2672.0,Rspan.short,E2
1446,37.0,D,14.0,1.0,heat,1,heat,2599.0,Rspan.short,E2
1447,37.0,D,14.0,2.0,shape,2,shape,3287.0,Rspan.short,E2
1448,37.0,D,14.0,3.0,pear,3,pear,2911.0,Rspan.short,E2
1449,37.0,D,14.0,4.0,guest,4,guest,2687.0,Rspan.short,E2
1450,37.0,D,15.0,0.0,chest,0,chest,2800.0,Rspan.short,E2
1451,37.0,D,15.0,1.0,lane,1,lane,4447.0,Rspan.short,E2
1452,37.0,D,15.0,2.0,hair,2,hair,3383.0,Rspan.short,E2
1453,37.0,D,15.0,3.0,crown,3,crown,4847.0,Rspan.short,E2
1454,37.0,S,16.0,0.0,king,0,king,3176.0,Rspan.short,E2
1455,37.0,S,16.0,1.0,ring,1,ring,3031.0,Rspan.short,E2
1456,37.0,S,16.0,2.0,spring,2,spring,2783.0,Rspan.short,E2
1457,37.0,S,16.0,3.0,string,3,,3479.0,Rspan.short,E2
1458,37.0,S,16.0,4.0,wing,4,,3742.0,Rspan.short,E2
1459,37.0,S,17.0,0.0,bread,0,bread,2800.0,Rspan.short,E2
1460,37.0,S,17.0,1.0,head,1,thread,3119.0,Rspan.short,E2
1461,37.0,S,17.0,2.0,thread,2,head,3263.0,Rspan.short,E2
1462,37.0,S,17.0,3.0,bed,3,bed,2871.0,Rspan.short,E2
1463,37.0,S,18.0,0.0,deer,0,deer,4000.0,Rspan.short,E2
1464,37.0,S,18.0,1.0,sphere,1,sphere,3199.0,Rspan.short,E2
1465,37.0,S,18.0,2.0,ear,2,ear,2879.0,Rspan.short,E2
1466,37.0,S,18.0,3.0,tear,3,tear,3047.0,Rspan.short,E2
1467,37.0,S,19.0,0.0,mail,0,sail,3384.0,Rspan.short,E2
1468,37.0,S,19.0,1.0,sail,1,trail,3327.0,Rspan.short,E2
1469,37.0,S,19.0,2.0,trail,2,,3071.0,Rspan.short,E2
1470,37.0,S,19.0,3.0,wail,3,snail,3463.0,Rspan.short,E2
1471,37.0,S,19.0,4.0,tail,4,jail,3543.0,Rspan.short,E2
1472,37.0,S,19.0,5.0,jail,,,3135.0,Rspan.short,E2
1473,37.0,S,20.0,0.0,blouse,0,blouse,2992.0,Rspan.short,E2
1474,37.0,S,20.0,1.0,house,1,house,3071.0,Rspan.short,E2
1475,37.0,S,20.0,2.0,mouse,2,mouse,3287.0,Rspan.short,E2
1476,37.0,S,21.0,0.0,doll,0,doll,3280.0,Rspan.short,E2
1477,37.0,S,21.0,1.0,ball,1,shawl,3127.0,Rspan.short,E2
1478,37.0,S,21.0,2.0,shawl,2,,2447.0,Rspan.short,E2
1479,37.0,S,21.0,3.0,hall,3,brawl,4375.0,Rspan.short,E2
1480,37.0,S,21.0,4.0,brawl,4,,3311.0,Rspan.short,E2
1481,37.0,S,21.0,5.0,wall,5,wall,4230.0,Rspan.short,E2
1482,37.0,S,22.0,0.0,bone,0,bone,2808.0,Rspan.short,E2
1483,37.0,S,22.0,1.0,phone,1,phone,3103.0,Rspan.short,E2
1484,37.0,S,22.0,2.0,stone,2,stone,3223.0,Rspan.short,E2
1485,37.0,S,23.0,0.0,boot,0,boot,3584.0,Rspan.short,E2
1486,37.0,S,23.0,1.0,suit,1,flute,3455.0,Rspan.short,E2
1487,37.0,S,23.0,2.0,flute,2,,3919.0,Rspan.short,E2
1488,37.0,S,23.0,3.0,loot,3,root,3199.0,Rspan.short,E2
1489,37.0,S,23.0,4.0,root,4,,3383.0,Rspan.short,E2
1490,37.0,S,23.0,5.0,brute,5,,2687.0,Rspan.short,E2
1491,37.0,S,24.0,0.0,band,0,band,2944.0,Rspan.short,E2
1492,37.0,S,24.0,1.0,land,1,land,3687.0,Rspan.short,E2
1493,37.0,S,24.0,2.0,stand,2,stand,2711.0,Rspan.short,E2
1494,37.0,S,24.0,3.0,hand,3,hand,3103.0,Rspan.short,E2
1495,37.0,S,25.0,0.0,pie,0,pie,2632.0,Rspan.short,E2
1496,37.0,S,25.0,1.0,fly,1,fly,3575.0,Rspan.short,E2
1497,37.0,S,25.0,2.0,tie,2,tie,2727.0,Rspan.short,E2
1498,37.0,S,25.0,3.0,sky,3,sky,2855.0,Rspan.short,E2
1499,37.0,S,25.0,4.0,eye,4,,5031.0,Rspan.short,E2
1500,37.0,S,26.0,0.0,cream,0,cream,2680.0,Rspan.short,E2
1501,37.0,S,26.0,1.0,team,1,team,2847.0,Rspan.short,E2
1502,37.0,S,26.0,2.0,steam,2,steam,2991.0,Rspan.short,E2
1503,37.0,S,27.0,0.0,jar,0,jar,2808.0,Rspan.short,E2
1504,37.0,S,27.0,1.0,bar,1,bar,2663.0,Rspan.short,E2
1505,37.0,S,27.0,2.0,car,2,car,3415.0,Rspan.short,E2
1506,37.0,S,27.0,3.0,scar,3,scar,5023.0,Rspan.short,E2
1507,37.0,S,27.0,4.0,star,4,star,3287.0,Rspan.short,E2
1508,39.0,P,0.0,0.0,bath,0,bath,,Rspan.short,E2
1509,39.0,P,0.0,1.0,dawn,1,dawn,,Rspan.short,E2
1510,39.0,P,1.0,0.0,earth,0,earth,,Rspan.short,E2
1511,39.0,P,1.0,1.0,peach,1,peach,,Rspan.short,E2
1512,39.0,P,2.0,0.0,farm,0,farm,,Rspan.short,E2
1513,39.0,P,2.0,1.0,arm,1,arm,,Rspan.short,E2
1514,39.0,P,3.0,0.0,hood,0,hood,,Rspan.short,E2
1515,39.0,P,3.0,1.0,wood,1,wood,,Rspan.short,E2
1516,39.0,D,4.0,0.0,shell,0,,4055.0,Rspan.short,E2
1517,39.0,D,4.0,1.0,tree,1,shell,4599.0,Rspan.short,E2
1518,39.0,D,4.0,2.0,bowl,2,,4672.0,Rspan.short,E2
1519,39.0,D,4.0,3.0,broom,3,broom,6735.0,Rspan.short,E2
1520,39.0,D,4.0,4.0,test,4,ground,5048.0,Rspan.short,E2
1521,39.0,D,4.0,5.0,ground,,,5216.0,Rspan.short,E2
1522,39.0,D,5.0,0.0,path,0,brat,4513.0,Rspan.short,E2
1523,39.0,D,5.0,1.0,nest,1,path,5056.0,Rspan.short,E2
1524,39.0,D,5.0,2.0,square,2,wood,4736.0,Rspan.short,E2
1525,39.0,D,5.0,3.0,wood,3,beach,6247.0,Rspan.short,E2
1526,39.0,D,5.0,4.0,beach,,,5144.0,Rspan.short,E2
1527,39.0,D,6.0,0.0,rice,0,rice,4928.0,Rspan.short,E2
1528,39.0,D,6.0,1.0,cat,1,cat,5288.0,Rspan.short,E2
1529,39.0,D,6.0,2.0,trash,2,trash,4088.0,Rspan.short,E2
1530,39.0,D,7.0,0.0,spice,0,spice,4537.0,Rspan.short,E2
1531,39.0,D,7.0,1.0,heat,1,heat,4224.0,Rspan.short,E2
1532,39.0,D,7.0,2.0,shape,2,shape,4568.0,Rspan.short,E2
1533,39.0,D,7.0,3.0,pear,3,pear,4424.0,Rspan.short,E2
1534,39.0,D,7.0,4.0,guest,4,guest,4544.0,Rspan.short,E2
1535,39.0,D,8.0,0.0,neck,0,neck,4497.0,Rspan.short,E2
1536,39.0,D,8.0,1.0,town,1,town,4320.0,Rspan.short,E2
1537,39.0,D,8.0,2.0,hat,2,hat,4824.0,Rspan.short,E2
1538,39.0,D,8.0,3.0,street,3,street,5120.0,Rspan.short,E2
1539,39.0,D,9.0,0.0,beard,0,beard,4497.0,Rspan.short,E2
1540,39.0,D,9.0,1.0,hill,1,hill,4872.0,Rspan.short,E2
1541,39.0,D,9.0,2.0,dirt,2,dirt,4048.0,Rspan.short,E2
1542,39.0,D,9.0,3.0,card,3,,5456.0,Rspan.short,E2
1543,39.0,D,9.0,4.0,line,4,line,4792.0,Rspan.short,E2
1544,39.0,D,10.0,0.0,chest,0,chest,4537.0,Rspan.short,E2
1545,39.0,D,10.0,1.0,lane,1,lane,5192.0,Rspan.short,E2
1546,39.0,D,10.0,2.0,hair,2,hair,4912.0,Rspan.short,E2
1547,39.0,D,10.0,3.0,crown,3,crown,4752.0,Rspan.short,E2
1548,39.0,D,11.0,0.0,coin,0,,5761.0,Rspan.short,E2
1549,39.0,D,11.0,1.0,film,1,,4248.0,Rspan.short,E2
1550,39.0,D,11.0,2.0,leaf,2,hair,5536.0,Rspan.short,E2
1551,39.0,D,11.0,3.0,train,3,leaf,4224.0,Rspan.short,E2
1552,39.0,D,11.0,4.0,map,4,train,4512.0,Rspan.short,E2
1553,39.0,D,11.0,5.0,art,5,art,5088.0,Rspan.short,E2
1554,39.0,D,12.0,0.0,toy,0,toy,4513.0,Rspan.short,E2
1555,39.0,D,12.0,1.0,wreck,1,wreck,5048.0,Rspan.short,E2
1556,39.0,D,12.0,2.0,frown,2,frown,4528.0,Rspan.short,E2
1557,39.0,D,13.0,0.0,deck,0,deck,3641.0,Rspan.short,E2
1558,39.0,D,13.0,1.0,slice,1,slice,3832.0,Rspan.short,E2
1559,39.0,D,13.0,2.0,rat,2,rat,3728.0,Rspan.short,E2
1560,39.0,D,14.0,0.0,ant,0,,4361.0,Rspan.short,E2
1561,39.0,D,14.0,1.0,air,1,,4816.0,Rspan.short,E2
1562,39.0,D,14.0,2.0,ink,2,clown,4336.0,Rspan.short,E2
1563,39.0,D,14.0,3.0,cloud,3,seat,5608.0,Rspan.short,E2
1564,39.0,D,14.0,4.0,seat,4,breath,4680.0,Rspan.short,E2
1565,39.0,D,14.0,5.0,breath,,,5152.0,Rspan.short,E2
1566,39.0,D,15.0,0.0,mare,0,,4281.0,Rspan.short,E2
1567,39.0,D,15.0,1.0,bell,1,bell,3832.0,Rspan.short,E2
1568,39.0,D,15.0,2.0,brain,2,brain,5295.0,Rspan.short,E2
1569,39.0,D,15.0,3.0,beef,3,beef,5192.0,Rspan.short,E2
1570,39.0,S,16.0,0.0,bone,0,bone,3880.0,Rspan.short,E2
1571,39.0,S,16.0,1.0,phone,1,phone,4576.0,Rspan.short,E2
1572,39.0,S,16.0,2.0,stone,2,stone,5528.0,Rspan.short,E2
1573,39.0,S,17.0,0.0,doll,0,doll,4737.0,Rspan.short,E2
1574,39.0,S,17.0,1.0,ball,1,ball,3944.0,Rspan.short,E2
1575,39.0,S,17.0,2.0,shawl,2,hall,3928.0,Rspan.short,E2
1576,39.0,S,17.0,3.0,hall,3,brawl,5496.0,Rspan.short,E2
1577,39.0,S,17.0,4.0,brawl,4,,6304.0,Rspan.short,E2
1578,39.0,S,17.0,5.0,wall,,,4840.0,Rspan.short,E2
1579,39.0,S,18.0,0.0,boot,0,boot,4801.0,Rspan.short,E2
1580,39.0,S,18.0,1.0,suit,1,suit,4744.0,Rspan.short,E2
1581,39.0,S,18.0,2.0,flute,2,flute,4456.0,Rspan.short,E2
1582,39.0,S,18.0,3.0,loot,3,,4576.0,Rspan.short,E2
1583,39.0,S,18.0,4.0,root,4,,4952.0,Rspan.short,E2
1584,39.0,S,18.0,5.0,brute,,,4888.0,Rspan.short,E2
1585,39.0,S,19.0,0.0,deer,0,deer,3985.0,Rspan.short,E2
1586,39.0,S,19.0,1.0,sphere,1,sphere,4528.0,Rspan.short,E2
1587,39.0,S,19.0,2.0,ear,2,ear,4440.0,Rspan.short,E2
1588,39.0,S,19.0,3.0,tear,3,tear,4672.0,Rspan.short,E2
1589,39.0,S,20.0,0.0,bread,0,bread,3865.0,Rspan.short,E2
1590,39.0,S,20.0,1.0,head,1,head,4536.0,Rspan.short,E2
1591,39.0,S,20.0,2.0,thread,2,thread,6864.0,Rspan.short,E2
1592,39.0,S,20.0,3.0,bed,3,bed,4912.0,Rspan.short,E2
1593,39.0,S,21.0,0.0,pie,0,pie,4089.0,Rspan.short,E2
1594,39.0,S,21.0,1.0,fly,1,fly,4944.0,Rspan.short,E2
1595,39.0,S,21.0,2.0,tie,2,tie,4040.0,Rspan.short,E2
1596,39.0,S,21.0,3.0,sky,3,sky,4704.0,Rspan.short,E2
1597,39.0,S,21.0,4.0,eye,4,,4984.0,Rspan.short,E2
1598,39.0,S,22.0,0.0,cream,0,cream,4305.0,Rspan.short,E2
1599,39.0,S,22.0,1.0,team,1,,4816.0,Rspan.short,E2
1600,39.0,S,22.0,2.0,steam,2,steam,6032.0,Rspan.short,E2
1601,39.0,S,23.0,0.0,blouse,0,blouse,3889.0,Rspan.short,E2
1602,39.0,S,23.0,1.0,house,1,house,3832.0,Rspan.short,E2
1603,39.0,S,23.0,2.0,mouse,2,mouse,4391.0,Rspan.short,E2
1604,39.0,S,24.0,0.0,band,0,band,3673.0,Rspan.short,E2
1605,39.0,S,24.0,1.0,land,1,land,4328.0,Rspan.short,E2
1606,39.0,S,24.0,2.0,stand,2,stand,5152.0,Rspan.short,E2
1607,39.0,S,24.0,3.0,hand,3,hand,5192.0,Rspan.short,E2
1608,39.0,S,25.0,0.0,king,0,king,4241.0,Rspan.short,E2
1609,39.0,S,25.0,1.0,ring,1,ring,4912.0,Rspan.short,E2
1610,39.0,S,25.0,2.0,spring,2,spring,4327.0,Rspan.short,E2
1611,39.0,S,25.0,3.0,string,3,string,4679.0,Rspan.short,E2
1612,39.0,S,25.0,4.0,wing,4,,5128.0,Rspan.short,E2
1613,39.0,S,26.0,0.0,jar,0,jar,4049.0,Rspan.short,E2
1614,39.0,S,26.0,1.0,bar,1,bar,4056.0,Rspan.short,E2
1615,39.0,S,26.0,2.0,car,2,car,5248.0,Rspan.short,E2
1616,39.0,S,26.0,3.0,scar,3,scar,4847.0,Rspan.short,E2
1617,39.0,S,26.0,4.0,star,4,star,4416.0,Rspan.short,E2
1618,39.0,S,27.0,0.0,mail,0,mail,4353.0,Rspan.short,E2
1619,39.0,S,27.0,1.0,sail,1,sail,4712.0,Rspan.short,E2
1620,39.0,S,27.0,2.0,trail,2,trail,4456.0,Rspan.short,E2
1621,39.0,S,27.0,3.0,wail,3,,4704.0,Rspan.short,E2
1622,39.0,S,27.0,4.0,tail,4,tail,4640.0,Rspan.short,E2
1623,39.0,S,27.0,5.0,jail,5,,4703.0,Rspan.short,E2
1624,41.0,P,0.0,0.0,hood,0,hood,,Rspan.short,E2
1625,41.0,P,0.0,1.0,wood,1,wood,,Rspan.short,E2
1626,41.0,P,1.0,0.0,earth,0,earth,,Rspan.short,E2
1627,41.0,P,1.0,1.0,peach,1,peach,,Rspan.short,E2
1628,41.0,P,2.0,0.0,farm,0,farm,,Rspan.short,E2
1629,41.0,P,2.0,1.0,arm,1,arm,,Rspan.short,E2
1630,41.0,P,3.0,0.0,bath,0,bath,,Rspan.short,E2
1631,41.0,P,3.0,1.0,dawn,1,dawn,,Rspan.short,E2
1632,41.0,S,4.0,0.0,jar,0,jar,3303.0,Rspan.short,E2
1633,41.0,S,4.0,1.0,bar,1,bar,2911.0,Rspan.short,E2
1634,41.0,S,4.0,2.0,car,2,scar,4071.0,Rspan.short,E2
1635,41.0,S,4.0,3.0,scar,3,,3599.0,Rspan.short,E2
1636,41.0,S,4.0,4.0,star,,,3975.0,Rspan.short,E2
1637,41.0,S,5.0,0.0,king,0,king,3537.0,Rspan.short,E2
1638,41.0,S,5.0,1.0,ring,1,ring,3512.0,Rspan.short,E2
1639,41.0,S,5.0,2.0,spring,2,,3351.0,Rspan.short,E2
1640,41.0,S,5.0,3.0,string,3,wing,3151.0,Rspan.short,E2
1641,41.0,S,5.0,4.0,wing,,,3504.0,Rspan.short,E2
1642,41.0,S,6.0,0.0,mail,0,mail,4145.0,Rspan.short,E2
1643,41.0,S,6.0,1.0,sail,1,sail,4368.0,Rspan.short,E2
1644,41.0,S,6.0,2.0,trail,2,,3559.0,Rspan.short,E2
1645,41.0,S,6.0,3.0,wail,3,jail,3407.0,Rspan.short,E2
1646,41.0,S,6.0,4.0,tail,,,3368.0,Rspan.short,E2
1647,41.0,S,6.0,5.0,jail,,,3447.0,Rspan.short,E2
1648,41.0,S,7.0,0.0,cream,0,cream,3040.0,Rspan.short,E2
1649,41.0,S,7.0,1.0,team,1,team,3215.0,Rspan.short,E2
1650,41.0,S,7.0,2.0,steam,2,steam,3528.0,Rspan.short,E2
1651,41.0,S,8.0,0.0,boot,0,boot,3480.0,Rspan.short,E2
1652,41.0,S,8.0,1.0,suit,1,suit,3359.0,Rspan.short,E2
1653,41.0,S,8.0,2.0,flute,2,loot,3520.0,Rspan.short,E2
1654,41.0,S,8.0,3.0,loot,3,brute,4895.0,Rspan.short,E2
1655,41.0,S,8.0,4.0,root,4,,3903.0,Rspan.short,E2
1656,41.0,S,8.0,5.0,brute,,,3167.0,Rspan.short,E2
1657,41.0,S,9.0,0.0,band,0,band,3256.0,Rspan.short,E2
1658,41.0,S,9.0,1.0,land,1,land,3408.0,Rspan.short,E2
1659,41.0,S,9.0,2.0,stand,2,,3711.0,Rspan.short,E2
1660,41.0,S,9.0,3.0,hand,3,sand,3807.0,Rspan.short,E2
1661,41.0,S,10.0,0.0,bone,0,phone,2977.0,Rspan.short,E2
1662,41.0,S,10.0,1.0,phone,1,bone,3471.0,Rspan.short,E2
1663,41.0,S,10.0,2.0,stone,2,stone,4223.0,Rspan.short,E2
1664,41.0,S,11.0,0.0,doll,0,,3689.0,Rspan.short,E2
1665,41.0,S,11.0,1.0,ball,1,,3711.0,Rspan.short,E2
1666,41.0,S,11.0,2.0,shawl,2,shawl,4391.0,Rspan.short,E2
1667,41.0,S,11.0,3.0,hall,3,brawl,3911.0,Rspan.short,E2
1668,41.0,S,11.0,4.0,brawl,4,wall,3799.0,Rspan.short,E2
1669,41.0,S,11.0,5.0,wall,,,3935.0,Rspan.short,E2
1670,41.0,S,12.0,0.0,bread,0,,3392.0,Rspan.short,E2
1671,41.0,S,12.0,1.0,head,1,head,4727.0,Rspan.short,E2
1672,41.0,S,12.0,2.0,thread,2,thread,4360.0,Rspan.short,E2
1673,41.0,S,12.0,3.0,bed,3,bed,3407.0,Rspan.short,E2
1674,41.0,S,13.0,0.0,deer,0,deer,3401.0,Rspan.short,E2
1675,41.0,S,13.0,1.0,sphere,1,sphere,3158.0,Rspan.short,E2
1676,41.0,S,13.0,2.0,ear,2,,3719.0,Rspan.short,E2
1677,41.0,S,13.0,3.0,tear,3,tear,3984.0,Rspan.short,E2
1678,41.0,S,14.0,0.0,pie,0,pie,3353.0,Rspan.short,E2
1679,41.0,S,14.0,1.0,fly,1,fly,3775.0,Rspan.short,E2
1680,41.0,S,14.0,2.0,tie,2,,3759.0,Rspan.short,E2
1681,41.0,S,14.0,3.0,sky,3,sky,3847.0,Rspan.short,E2
1682,41.0,S,14.0,4.0,eye,4,eye,4167.0,Rspan.short,E2
1683,41.0,S,15.0,0.0,blouse,0,blouse,3808.0,Rspan.short,E2
1684,41.0,S,15.0,1.0,house,1,house,3719.0,Rspan.short,E2
1685,41.0,S,15.0,2.0,mouse,2,mouse,3199.0,Rspan.short,E2
1686,41.0,D,16.0,0.0,deck,0,deck,3048.0,Rspan.short,E2
1687,41.0,D,16.0,1.0,slice,1,slice,3015.0,Rspan.short,E2
1688,41.0,D,16.0,2.0,rat,2,rat,3343.0,Rspan.short,E2
1689,41.0,D,17.0,0.0,ant,0,ant,3152.0,Rspan.short,E2
1690,41.0,D,17.0,1.0,air,1,air,3751.0,Rspan.short,E2
1691,41.0,D,17.0,2.0,ink,2,,3535.0,Rspan.short,E2
1692,41.0,D,17.0,3.0,cloud,3,,4351.0,Rspan.short,E2
1693,41.0,D,17.0,4.0,seat,4,breath,3311.0,Rspan.short,E2
1694,41.0,D,17.0,5.0,breath,,,3255.0,Rspan.short,E2
1695,41.0,D,18.0,0.0,coin,0,,5423.0,Rspan.short,E2
1696,41.0,D,18.0,1.0,film,1,train,3544.0,Rspan.short,E2
1697,41.0,D,18.0,2.0,leaf,2,map,4831.0,Rspan.short,E2
1698,41.0,D,18.0,3.0,train,3,art,3263.0,Rspan.short,E2
1699,41.0,D,18.0,4.0,map,,,3023.0,Rspan.short,E2
1700,41.0,D,18.0,5.0,art,,,3487.0,Rspan.short,E2
1701,41.0,D,19.0,0.0,beard,0,beard,3568.0,Rspan.short,E2
1702,41.0,D,19.0,1.0,hill,1,hill,3351.0,Rspan.short,E2
1703,41.0,D,19.0,2.0,dirt,2,dirt,3055.0,Rspan.short,E2
1704,41.0,D,19.0,3.0,card,3,card,4287.0,Rspan.short,E2
1705,41.0,D,19.0,4.0,line,4,line,3608.0,Rspan.short,E2
1706,41.0,D,20.0,0.0,neck,0,neck,3257.0,Rspan.short,E2
1707,41.0,D,20.0,1.0,town,1,town,3806.0,Rspan.short,E2
1708,41.0,D,20.0,2.0,hat,2,hat,4247.0,Rspan.short,E2
1709,41.0,D,20.0,3.0,street,3,street,3335.0,Rspan.short,E2
1710,41.0,D,21.0,0.0,shell,0,,3201.0,Rspan.short,E2
1711,41.0,D,21.0,1.0,tree,1,,3831.0,Rspan.short,E2
1712,41.0,D,21.0,2.0,bowl,2,ground,4208.0,Rspan.short,E2
1713,41.0,D,21.0,3.0,broom,3,,4271.0,Rspan.short,E2
1714,41.0,D,21.0,4.0,test,,,3551.0,Rspan.short,E2
1715,41.0,D,21.0,5.0,ground,,,3504.0,Rspan.short,E2
1716,41.0,D,22.0,0.0,rice,0,rice,3744.0,Rspan.short,E2
1717,41.0,D,22.0,1.0,cat,1,mice,4735.0,Rspan.short,E2
1718,41.0,D,22.0,2.0,trash,2,trash,3616.0,Rspan.short,E2
1719,41.0,D,23.0,0.0,mare,0,,3217.0,Rspan.short,E2
1720,41.0,D,23.0,1.0,bell,1,,3303.0,Rspan.short,E2
1721,41.0,D,23.0,2.0,brain,2,,3240.0,Rspan.short,E2
1722,41.0,D,23.0,3.0,beef,3,beef,4815.0,Rspan.short,E2
1723,41.0,D,24.0,0.0,toy,0,toy,4064.0,Rspan.short,E2
1724,41.0,D,24.0,1.0,wreck,1,,3536.0,Rspan.short,E2
1725,41.0,D,24.0,2.0,frown,2,frown,3527.0,Rspan.short,E2
1726,41.0,D,25.0,0.0,chest,0,chest,3600.0,Rspan.short,E2
1727,41.0,D,25.0,1.0,lane,1,lane,3711.0,Rspan.short,E2
1728,41.0,D,25.0,2.0,hair,2,,3871.0,Rspan.short,E2
1729,41.0,D,25.0,3.0,crown,3,crown,3927.0,Rspan.short,E2
1730,41.0,D,26.0,0.0,spice,0,,4240.0,Rspan.short,E2
1731,41.0,D,26.0,1.0,heat,1,,3039.0,Rspan.short,E2
1732,41.0,D,26.0,2.0,shape,2,,4095.0,Rspan.short,E2
1733,41.0,D,26.0,3.0,pear,3,guest,3791.0,Rspan.short,E2
1734,41.0,D,26.0,4.0,guest,,,3199.0,Rspan.short,E2
1735,41.0,D,27.0,0.0,path,0,,3345.0,Rspan.short,E2
1736,41.0,D,27.0,1.0,nest,1,,3759.0,Rspan.short,E2
1737,41.0,D,27.0,2.0,square,2,,3471.0,Rspan.short,E2
1738,41.0,D,27.0,3.0,wood,3,wood,4095.0,Rspan.short,E2
1739,41.0,D,27.0,4.0,beach,4,beach,3751.0,Rspan.short,E2
1740,43.0,P,0.0,0.0,farm,0,farm,,Rspan.short,E2
1741,43.0,P,0.0,1.0,arm,1,arm,,Rspan.short,E2
1742,43.0,P,1.0,0.0,hood,0,hood,,Rspan.short,E2
1743,43.0,P,1.0,1.0,wood,1,wood,,Rspan.short,E2
1744,43.0,P,2.0,0.0,bath,0,bath,,Rspan.short,E2
1745,43.0,P,2.0,1.0,dawn,1,dawn,,Rspan.short,E2
1746,43.0,P,3.0,0.0,earth,0,earth,,Rspan.short,E2
1747,43.0,P,3.0,1.0,peach,1,peach,,Rspan.short,E2
1748,43.0,S,4.0,0.0,jar,0,,4391.0,Rspan.short,E2
1749,43.0,S,4.0,1.0,bar,1,bar,3440.0,Rspan.short,E2
1750,43.0,S,4.0,2.0,car,2,jar,3512.0,Rspan.short,E2
1751,43.0,S,4.0,3.0,scar,3,,5312.0,Rspan.short,E2
1752,43.0,S,4.0,4.0,star,4,car,3864.0,Rspan.short,E2
1753,43.0,S,5.0,0.0,bone,0,bone,3265.0,Rspan.short,E2
1754,43.0,S,5.0,1.0,phone,1,phone,4736.0,Rspan.short,E2
1755,43.0,S,5.0,2.0,stone,2,stone,4704.0,Rspan.short,E2
1756,43.0,S,6.0,0.0,king,0,king,4232.0,Rspan.short,E2
1757,43.0,S,6.0,1.0,ring,1,,4168.0,Rspan.short,E2
1758,43.0,S,6.0,2.0,spring,2,ring,4648.0,Rspan.short,E2
1759,43.0,S,6.0,3.0,string,3,string,4624.0,Rspan.short,E2
1760,43.0,S,6.0,4.0,wing,,,4936.0,Rspan.short,E2
1761,43.0,S,7.0,0.0,pie,0,tie,4233.0,Rspan.short,E2
1762,43.0,S,7.0,1.0,fly,1,fly,4992.0,Rspan.short,E2
1763,43.0,S,7.0,2.0,tie,2,sky,4496.0,Rspan.short,E2
1764,43.0,S,7.0,3.0,sky,3,eye,4928.0,Rspan.short,E2
1765,43.0,S,7.0,4.0,eye,,,5128.0,Rspan.short,E2
1766,43.0,S,8.0,0.0,deer,0,deer,4137.0,Rspan.short,E2
1767,43.0,S,8.0,1.0,sphere,1,sphere,4240.0,Rspan.short,E2
1768,43.0,S,8.0,2.0,ear,2,ear,4768.0,Rspan.short,E2
1769,43.0,S,8.0,3.0,tear,3,tear,4584.0,Rspan.short,E2
1770,43.0,S,9.0,0.0,boot,0,boot,4449.0,Rspan.short,E2
1771,43.0,S,9.0,1.0,suit,1,suit,5024.0,Rspan.short,E2
1772,43.0,S,9.0,2.0,flute,2,flute,3864.0,Rspan.short,E2
1773,43.0,S,9.0,3.0,loot,3,,6240.0,Rspan.short,E2
1774,43.0,S,9.0,4.0,root,4,brute,5800.0,Rspan.short,E2
1775,43.0,S,9.0,5.0,brute,5,,3816.0,Rspan.short,E2
1776,43.0,S,10.0,0.0,mail,0,mail,4689.0,Rspan.short,E2
1777,43.0,S,10.0,1.0,sail,1,trail,6360.0,Rspan.short,E2
1778,43.0,S,10.0,2.0,trail,2,tail,4104.0,Rspan.short,E2
1779,43.0,S,10.0,3.0,wail,3,,4567.0,Rspan.short,E2
1780,43.0,S,10.0,4.0,tail,,,4480.0,Rspan.short,E2
1781,43.0,S,10.0,5.0,jail,,,4448.0,Rspan.short,E2
1782,43.0,S,11.0,0.0,blouse,0,blouse,3545.0,Rspan.short,E2
1783,43.0,S,11.0,1.0,house,1,house,3320.0,Rspan.short,E2
1784,43.0,S,11.0,2.0,mouse,2,mouse,4216.0,Rspan.short,E2
1785,43.0,S,12.0,0.0,band,0,land,3825.0,Rspan.short,E2
1786,43.0,S,12.0,1.0,land,1,stand,3904.0,Rspan.short,E2
1787,43.0,S,12.0,2.0,stand,2,hand,4048.0,Rspan.short,E2
1788,43.0,S,12.0,3.0,hand,,,5672.0,Rspan.short,E2
1789,43.0,S,13.0,0.0,doll,0,doll,4177.0,Rspan.short,E2
1790,43.0,S,13.0,1.0,ball,1,brawl,3992.0,Rspan.short,E2
1791,43.0,S,13.0,2.0,shawl,2,mall,2896.0,Rspan.short,E2
1792,43.0,S,13.0,3.0,hall,,,4472.0,Rspan.short,E2
1793,43.0,S,13.0,4.0,brawl,,,4416.0,Rspan.short,E2
1794,43.0,S,13.0,5.0,wall,,,3872.0,Rspan.short,E2
1795,43.0,S,14.0,0.0,cream,0,cream,4265.0,Rspan.short,E2
1796,43.0,S,14.0,1.0,team,1,team,3104.0,Rspan.short,E2
1797,43.0,S,14.0,2.0,steam,2,steam,4159.0,Rspan.short,E2
1798,43.0,S,15.0,0.0,bread,0,bread,2945.0,Rspan.short,E2
1799,43.0,S,15.0,1.0,head,1,head,3576.0,Rspan.short,E2
1800,43.0,S,15.0,2.0,thread,2,thread,3112.0,Rspan.short,E2
1801,43.0,S,15.0,3.0,bed,3,,5048.0,Rspan.short,E2
1802,43.0,D,16.0,0.0,mare,0,mare,3401.0,Rspan.short,E2
1803,43.0,D,16.0,1.0,bell,1,bell,3440.0,Rspan.short,E2
1804,43.0,D,16.0,2.0,brain,2,brain,3656.0,Rspan.short,E2
1805,43.0,D,16.0,3.0,beef,3,beef,4392.0,Rspan.short,E2
1806,43.0,D,17.0,0.0,beard,0,beard,2905.0,Rspan.short,E2
1807,43.0,D,17.0,1.0,hill,1,hill,2888.0,Rspan.short,E2
1808,43.0,D,17.0,2.0,dirt,2,dirt,2600.0,Rspan.short,E2
1809,43.0,D,17.0,3.0,card,3,card,4312.0,Rspan.short,E2
1810,43.0,D,17.0,4.0,line,4,line,4000.0,Rspan.short,E2
1811,43.0,D,18.0,0.0,rice,0,rice,3673.0,Rspan.short,E2
1812,43.0,D,18.0,1.0,cat,1,cat,4160.0,Rspan.short,E2
1813,43.0,D,18.0,2.0,trash,2,trash,3072.0,Rspan.short,E2
1814,43.0,D,19.0,0.0,path,0,path,3327.0,Rspan.short,E2
1815,43.0,D,19.0,1.0,nest,1,,3424.0,Rspan.short,E2
1816,43.0,D,19.0,2.0,square,2,wood,3544.0,Rspan.short,E2
1817,43.0,D,19.0,3.0,wood,3,,4472.0,Rspan.short,E2
1818,43.0,D,19.0,4.0,beach,4,beach,4624.0,Rspan.short,E2
1819,43.0,D,20.0,0.0,toy,0,toy,3825.0,Rspan.short,E2
1820,43.0,D,20.0,1.0,wreck,1,wreck,3992.0,Rspan.short,E2
1821,43.0,D,20.0,2.0,frown,2,frown,4104.0,Rspan.short,E2
1822,43.0,D,21.0,0.0,spice,0,,3145.0,Rspan.short,E2
1823,43.0,D,21.0,1.0,heat,1,heat,2839.0,Rspan.short,E2
1824,43.0,D,21.0,2.0,shape,2,shape,3472.0,Rspan.short,E2
1825,43.0,D,21.0,3.0,pear,3,,3768.0,Rspan.short,E2
1826,43.0,D,21.0,4.0,guest,4,dust,3944.0,Rspan.short,E2
1827,43.0,D,22.0,0.0,neck,0,neck,3329.0,Rspan.short,E2
1828,43.0,D,22.0,1.0,town,1,town,3831.0,Rspan.short,E2
1829,43.0,D,22.0,2.0,hat,2,hat,3952.0,Rspan.short,E2
1830,43.0,D,22.0,3.0,street,3,street,4047.0,Rspan.short,E2
1831,43.0,D,23.0,0.0,shell,0,tree,3297.0,Rspan.short,E2
1832,43.0,D,23.0,1.0,tree,1,,3856.0,Rspan.short,E2
1833,43.0,D,23.0,2.0,bowl,2,bowl,4520.0,Rspan.short,E2
1834,43.0,D,23.0,3.0,broom,3,,4368.0,Rspan.short,E2
1835,43.0,D,23.0,4.0,test,4,ground,3144.0,Rspan.short,E2
1836,43.0,D,23.0,5.0,ground,,,2512.0,Rspan.short,E2
1837,43.0,D,24.0,0.0,coin,0,coin,4048.0,Rspan.short,E2
1838,43.0,D,24.0,1.0,film,1,film,2896.0,Rspan.short,E2
1839,43.0,D,24.0,2.0,leaf,2,,4088.0,Rspan.short,E2
1840,43.0,D,24.0,3.0,train,3,art,4064.0,Rspan.short,E2
1841,43.0,D,24.0,4.0,map,4,map,3407.0,Rspan.short,E2
1842,43.0,D,24.0,5.0,art,,,3840.0,Rspan.short,E2
1843,43.0,D,25.0,0.0,deck,0,deck,2705.0,Rspan.short,E2
1844,43.0,D,25.0,1.0,slice,1,slice,3967.0,Rspan.short,E2
1845,43.0,D,25.0,2.0,rat,2,rat,3160.0,Rspan.short,E2
1846,43.0,D,26.0,0.0,ant,0,ant,2641.0,Rspan.short,E2
1847,43.0,D,26.0,1.0,air,1,air,3328.0,Rspan.short,E2
1848,43.0,D,26.0,2.0,ink,2,,3320.0,Rspan.short,E2
1849,43.0,D,26.0,3.0,cloud,3,cloud,3992.0,Rspan.short,E2
1850,43.0,D,26.0,4.0,seat,4,seat,3439.0,Rspan.short,E2
1851,43.0,D,26.0,5.0,breath,5,breath,3280.0,Rspan.short,E2
1852,43.0,D,27.0,0.0,chest,0,chest,3329.0,Rspan.short,E2
1853,43.0,D,27.0,1.0,lane,1,lane,3744.0,Rspan.short,E2
1854,43.0,D,27.0,2.0,hair,2,,4352.0,Rspan.short,E2
1855,43.0,D,27.0,3.0,crown,3,crown,4712.0,Rspan.short,E2
1856,45.0,P,0.0,0.0,farm,0,brick,,Rspan.short,E2
1857,45.0,P,0.0,1.0,arm,1,arm,,Rspan.short,E2
1858,45.0,P,1.0,0.0,bath,0,,,Rspan.short,E2
1859,45.0,P,1.0,1.0,dawn,1,dawn,,Rspan.short,E2
1860,45.0,P,2.0,0.0,earth,0,,,Rspan.short,E2
1861,45.0,P,2.0,1.0,peach,1,peach,,Rspan.short,E2
1862,45.0,P,3.0,0.0,hood,0,hood,,Rspan.short,E2
1863,45.0,P,3.0,1.0,wood,1,wood,,Rspan.short,E2
1864,45.0,D,4.0,0.0,spice,0,spice,4015.0,Rspan.short,E2
1865,45.0,D,4.0,1.0,heat,1,heat,4055.0,Rspan.short,E2
1866,45.0,D,4.0,2.0,shape,2,shape,5064.0,Rspan.short,E2
1867,45.0,D,4.0,3.0,pear,3,pear,6896.0,Rspan.short,E2
1868,45.0,D,4.0,4.0,guest,4,,4191.0,Rspan.short,E2
1869,45.0,D,5.0,0.0,rice,0,,4649.0,Rspan.short,E2
1870,45.0,D,5.0,1.0,cat,1,cat,5223.0,Rspan.short,E2
1871,45.0,D,5.0,2.0,trash,2,,3807.0,Rspan.short,E2
1872,45.0,D,6.0,0.0,coin,0,coin,4585.0,Rspan.short,E2
1873,45.0,D,6.0,1.0,film,1,,4487.0,Rspan.short,E2
1874,45.0,D,6.0,2.0,leaf,2,train,4174.0,Rspan.short,E2
1875,45.0,D,6.0,3.0,train,3,map,4159.0,Rspan.short,E2
1876,45.0,D,6.0,4.0,map,4,,3304.0,Rspan.short,E2
1877,45.0,D,6.0,5.0,art,5,,3784.0,Rspan.short,E2
1878,45.0,D,7.0,0.0,toy,0,toy,3609.0,Rspan.short,E2
1879,45.0,D,7.0,1.0,wreck,1,wreck,4678.0,Rspan.short,E2
1880,45.0,D,7.0,2.0,frown,2,drown,4870.0,Rspan.short,E2
1881,45.0,D,8.0,0.0,chest,0,,4441.0,Rspan.short,E2
1882,45.0,D,8.0,1.0,lane,1,,4664.0,Rspan.short,E2
1883,45.0,D,8.0,2.0,hair,2,crown,4551.0,Rspan.short,E2
1884,45.0,D,8.0,3.0,crown,,,4295.0,Rspan.short,E2
1885,45.0,D,9.0,0.0,shell,0,,4345.0,Rspan.short,E2
1886,45.0,D,9.0,1.0,tree,1,,5919.0,Rspan.short,E2
1887,45.0,D,9.0,2.0,bowl,2,,6800.0,Rspan.short,E2
1888,45.0,D,9.0,3.0,broom,3,,5390.0,Rspan.short,E2
1889,45.0,D,9.0,4.0,test,4,,4616.0,Rspan.short,E2
