,Subject,trialtype,trialnum,inpos,TBR,outpos,resp,dist_RT,task,folder
0,53.0,P,0.0,0.0,bath,0,bath,,spOspan.noVer,E7
1,53.0,P,0.0,1.0,dawn,,,,spOspan.noVer,E7
2,53.0,P,1.0,0.0,hood,0,hood,,spOspan.noVer,E7
3,53.0,P,1.0,1.0,wood,1,wood,,spOspan.noVer,E7
4,53.0,P,2.0,0.0,earth,0,earth,,spOspan.noVer,E7
5,53.0,P,2.0,1.0,peach,1,peach,,spOspan.noVer,E7
6,53.0,P,3.0,0.0,farm,0,farm,,spOspan.noVer,E7
7,53.0,P,3.0,1.0,arm,1,arm,,spOspan.noVer,E7
8,53.0,S,4.0,0.0,king,0,king,3228.0,spOspan.noVer,E7
9,53.0,S,4.0,1.0,ring,1,spring,3671.0,spOspan.noVer,E7
10,53.0,S,4.0,2.0,spring,2,,3214.0,spOspan.noVer,E7
11,53.0,S,4.0,3.0,string,3,wing,4039.0,spOspan.noVer,E7
12,53.0,S,4.0,4.0,wing,,,3201.0,spOspan.noVer,E7
13,53.0,S,5.0,0.0,pie,0,pie,3309.0,spOspan.noVer,E7
14,53.0,S,5.0,1.0,fly,1,fly,3300.0,spOspan.noVer,E7
15,53.0,S,5.0,2.0,tie,2,tie,3547.0,spOspan.noVer,E7
16,53.0,S,5.0,3.0,sky,3,,3448.0,spOspan.noVer,E7
17,53.0,S,5.0,4.0,eye,4,,3075.0,spOspan.noVer,E7
18,53.0,S,6.0,0.0,deer,0,dear,2999.0,spOspan.noVer,E7
19,53.0,S,6.0,1.0,sphere,1,sphere,2898.0,spOspan.noVer,E7
20,53.0,S,6.0,2.0,ear,2,ear,3082.0,spOspan.noVer,E7
21,53.0,S,6.0,3.0,tear,3,tear,3106.0,spOspan.noVer,E7
22,53.0,S,7.0,0.0,band,0,band,3623.0,spOspan.noVer,E7
23,53.0,S,7.0,1.0,land,1,stand,3242.0,spOspan.noVer,E7
24,53.0,S,7.0,2.0,stand,2,land,2867.0,spOspan.noVer,E7
25,53.0,S,7.0,3.0,hand,3,hand,3787.0,spOspan.noVer,E7
26,53.0,S,8.0,0.0,jar,0,jar,3507.0,spOspan.noVer,E7
27,53.0,S,8.0,1.0,bar,1,bar,3146.0,spOspan.noVer,E7
28,53.0,S,8.0,2.0,car,2,car,3656.0,spOspan.noVer,E7
29,53.0,S,8.0,3.0,scar,3,,4358.0,spOspan.noVer,E7
30,53.0,S,8.0,4.0,star,4,,3987.0,spOspan.noVer,E7
31,53.0,S,9.0,0.0,doll,0,doll,3723.0,spOspan.noVer,E7
32,53.0,S,9.0,1.0,ball,1,ball,3858.0,spOspan.noVer,E7
33,53.0,S,9.0,2.0,shawl,2,shawl,3281.0,spOspan.noVer,E7
34,53.0,S,9.0,3.0,hall,3,hall,3425.0,spOspan.noVer,E7
35,53.0,S,9.0,4.0,brawl,4,wall,2868.0,spOspan.noVer,E7
36,53.0,S,9.0,5.0,wall,,,2794.0,spOspan.noVer,E7
37,53.0,S,10.0,0.0,boot,0,boot,2761.0,spOspan.noVer,E7
38,53.0,S,10.0,1.0,suit,1,suit,3470.0,spOspan.noVer,E7
39,53.0,S,10.0,2.0,flute,2,flute,3190.0,spOspan.noVer,E7
40,53.0,S,10.0,3.0,loot,3,loot,3417.0,spOspan.noVer,E7
41,53.0,S,10.0,4.0,root,4,root,3083.0,spOspan.noVer,E7
42,53.0,S,10.0,5.0,brute,5,brute,3750.0,spOspan.noVer,E7
43,53.0,S,11.0,0.0,blouse,0,blouse,2995.0,spOspan.noVer,E7
44,53.0,S,11.0,1.0,house,1,house,3639.0,spOspan.noVer,E7
45,53.0,S,11.0,2.0,mouse,2,mouse,3497.0,spOspan.noVer,E7
46,53.0,S,12.0,0.0,bread,0,bread,2884.0,spOspan.noVer,E7
47,53.0,S,12.0,1.0,head,1,head,4747.0,spOspan.noVer,E7
48,53.0,S,12.0,2.0,thread,2,thread,3296.0,spOspan.noVer,E7
49,53.0,S,12.0,3.0,bed,3,bed,3401.0,spOspan.noVer,E7
50,53.0,S,13.0,0.0,cream,0,cream,3406.0,spOspan.noVer,E7
51,53.0,S,13.0,1.0,team,1,team,3528.0,spOspan.noVer,E7
52,53.0,S,13.0,2.0,steam,2,steam,3448.0,spOspan.noVer,E7
53,53.0,S,14.0,0.0,bone,0,bone,2913.0,spOspan.noVer,E7
54,53.0,S,14.0,1.0,phone,1,phone,3352.0,spOspan.noVer,E7
55,53.0,S,14.0,2.0,stone,2,stone,3742.0,spOspan.noVer,E7
56,53.0,S,15.0,0.0,mail,0,mail,3408.0,spOspan.noVer,E7
57,53.0,S,15.0,1.0,sail,1,sail,3245.0,spOspan.noVer,E7
58,53.0,S,15.0,2.0,trail,2,jail,3879.0,spOspan.noVer,E7
59,53.0,S,15.0,3.0,wail,3,bail,2919.0,spOspan.noVer,E7
60,53.0,S,15.0,4.0,tail,,,2957.0,spOspan.noVer,E7
61,53.0,S,15.0,5.0,jail,,,3674.0,spOspan.noVer,E7
62,53.0,D,16.0,0.0,deck,0,deck,3463.0,spOspan.noVer,E7
63,53.0,D,16.0,1.0,slice,1,slice,4567.0,spOspan.noVer,E7
64,53.0,D,16.0,2.0,rat,2,rat,5188.0,spOspan.noVer,E7
65,53.0,D,17.0,0.0,rice,0,rice,3223.0,spOspan.noVer,E7
66,53.0,D,17.0,1.0,cat,1,cat,3066.0,spOspan.noVer,E7
67,53.0,D,17.0,2.0,trash,2,trash,3586.0,spOspan.noVer,E7
68,53.0,D,18.0,0.0,coin,0,coin,3604.0,spOspan.noVer,E7
69,53.0,D,18.0,1.0,film,1,film,3247.0,spOspan.noVer,E7
70,53.0,D,18.0,2.0,leaf,2,leaf,4000.0,spOspan.noVer,E7
71,53.0,D,18.0,3.0,train,3,train,3418.0,spOspan.noVer,E7
72,53.0,D,18.0,4.0,map,4,art,3365.0,spOspan.noVer,E7
73,53.0,D,18.0,5.0,art,,,3833.0,spOspan.noVer,E7
74,53.0,D,19.0,0.0,neck,0,neck,3125.0,spOspan.noVer,E7
75,53.0,D,19.0,1.0,town,1,town,3499.0,spOspan.noVer,E7
76,53.0,D,19.0,2.0,hat,2,hat,4146.0,spOspan.noVer,E7
77,53.0,D,19.0,3.0,street,3,street,3607.0,spOspan.noVer,E7
78,53.0,D,20.0,0.0,mare,0,mare,3239.0,spOspan.noVer,E7
79,53.0,D,20.0,1.0,bell,1,bell,3522.0,spOspan.noVer,E7
80,53.0,D,20.0,2.0,brain,2,brain,3551.0,spOspan.noVer,E7
81,53.0,D,20.0,3.0,beef,3,beef,3508.0,spOspan.noVer,E7
82,53.0,D,21.0,0.0,toy,0,,3620.0,spOspan.noVer,E7
83,53.0,D,21.0,1.0,wreck,1,,2965.0,spOspan.noVer,E7
84,53.0,D,21.0,2.0,frown,2,frown,3900.0,spOspan.noVer,E7
85,53.0,D,22.0,0.0,chest,0,chest,3354.0,spOspan.noVer,E7
86,53.0,D,22.0,1.0,lane,1,lane,2974.0,spOspan.noVer,E7
87,53.0,D,22.0,2.0,hair,2,hair,3299.0,spOspan.noVer,E7
88,53.0,D,22.0,3.0,crown,3,crown,3986.0,spOspan.noVer,E7
89,53.0,D,23.0,0.0,ant,0,ant,3116.0,spOspan.noVer,E7
90,53.0,D,23.0,1.0,air,1,air,3699.0,spOspan.noVer,E7
91,53.0,D,23.0,2.0,ink,2,ink,3754.0,spOspan.noVer,E7
92,53.0,D,23.0,3.0,cloud,3,chair,3197.0,spOspan.noVer,E7
93,53.0,D,23.0,4.0,seat,4,cloud,4002.0,spOspan.noVer,E7
94,53.0,D,23.0,5.0,breath,5,breath,3908.0,spOspan.noVer,E7
95,53.0,D,24.0,0.0,beard,0,hill,3356.0,spOspan.noVer,E7
96,53.0,D,24.0,1.0,hill,1,beard,3377.0,spOspan.noVer,E7
97,53.0,D,24.0,2.0,dirt,2,dirt,3813.0,spOspan.noVer,E7
98,53.0,D,24.0,3.0,card,3,card,3086.0,spOspan.noVer,E7
99,53.0,D,24.0,4.0,line,,,3373.0,spOspan.noVer,E7
100,53.0,D,25.0,0.0,shell,0,shell,4052.0,spOspan.noVer,E7
101,53.0,D,25.0,1.0,tree,1,tree,3260.0,spOspan.noVer,E7
102,53.0,D,25.0,2.0,bowl,2,bowl,3686.0,spOspan.noVer,E7
103,53.0,D,25.0,3.0,broom,3,broom,3814.0,spOspan.noVer,E7
104,53.0,D,25.0,4.0,test,4,test,3456.0,spOspan.noVer,E7
105,53.0,D,25.0,5.0,ground,5,ground,2968.0,spOspan.noVer,E7
106,53.0,D,26.0,0.0,path,0,trail,3683.0,spOspan.noVer,E7
107,53.0,D,26.0,1.0,nest,1,nest,3546.0,spOspan.noVer,E7
108,53.0,D,26.0,2.0,square,2,square,2752.0,spOspan.noVer,E7
109,53.0,D,26.0,3.0,wood,3,wood,3549.0,spOspan.noVer,E7
110,53.0,D,26.0,4.0,beach,4,beach,3554.0,spOspan.noVer,E7
111,53.0,D,27.0,0.0,spice,0,spice,3111.0,spOspan.noVer,E7
112,53.0,D,27.0,1.0,heat,1,heat,3758.0,spOspan.noVer,E7
113,53.0,D,27.0,2.0,shape,2,shape,3426.0,spOspan.noVer,E7
114,53.0,D,27.0,3.0,pear,3,guest,4291.0,spOspan.noVer,E7
115,53.0,D,27.0,4.0,guest,,,3578.0,spOspan.noVer,E7
116,55.0,P,0.0,0.0,hood,0,hood,,spOspan.noVer,E7
117,55.0,P,0.0,1.0,wood,1,wood,,spOspan.noVer,E7
118,55.0,P,1.0,0.0,bath,0,bath,,spOspan.noVer,E7
119,55.0,P,1.0,1.0,dawn,1,dawn,,spOspan.noVer,E7
120,55.0,P,2.0,0.0,farm,0,farm,,spOspan.noVer,E7
121,55.0,P,2.0,1.0,arm,1,arm,,spOspan.noVer,E7
122,55.0,P,3.0,0.0,earth,0,earth,,spOspan.noVer,E7
123,55.0,P,3.0,1.0,peach,1,peach,,spOspan.noVer,E7
124,55.0,S,4.0,0.0,boot,0,,3497.0,spOspan.noVer,E7
125,55.0,S,4.0,1.0,suit,1,suit,3025.0,spOspan.noVer,E7
126,55.0,S,4.0,2.0,flute,2,root,3532.0,spOspan.noVer,E7
127,55.0,S,4.0,3.0,loot,3,brute,4841.0,spOspan.noVer,E7
128,55.0,S,4.0,4.0,root,4,flute,3577.0,spOspan.noVer,E7
129,55.0,S,4.0,5.0,brute,,,3597.0,spOspan.noVer,E7
130,55.0,S,5.0,0.0,jar,0,jar,3334.0,spOspan.noVer,E7
131,55.0,S,5.0,1.0,bar,1,bar,3301.0,spOspan.noVer,E7
132,55.0,S,5.0,2.0,car,2,car,3708.0,spOspan.noVer,E7
133,55.0,S,5.0,3.0,scar,3,scar,3554.0,spOspan.noVer,E7
134,55.0,S,5.0,4.0,star,4,star,4397.0,spOspan.noVer,E7
135,55.0,S,6.0,0.0,blouse,0,blouse,4552.0,spOspan.noVer,E7
136,55.0,S,6.0,1.0,house,1,house,3475.0,spOspan.noVer,E7
137,55.0,S,6.0,2.0,mouse,2,mouse,3643.0,spOspan.noVer,E7
138,55.0,S,7.0,0.0,bread,0,head,3120.0,spOspan.noVer,E7
139,55.0,S,7.0,1.0,head,1,bread,2965.0,spOspan.noVer,E7
140,55.0,S,7.0,2.0,thread,2,,3380.0,spOspan.noVer,E7
141,55.0,S,7.0,3.0,bed,,,3704.0,spOspan.noVer,E7
142,55.0,S,8.0,0.0,king,0,king,4279.0,spOspan.noVer,E7
143,55.0,S,8.0,1.0,ring,1,ring,2992.0,spOspan.noVer,E7
144,55.0,S,8.0,2.0,spring,2,,3219.0,spOspan.noVer,E7
145,55.0,S,8.0,3.0,string,3,string,3557.0,spOspan.noVer,E7
146,55.0,S,8.0,4.0,wing,,,3298.0,spOspan.noVer,E7
147,55.0,S,9.0,0.0,band,0,band,3154.0,spOspan.noVer,E7
148,55.0,S,9.0,1.0,land,1,land,3335.0,spOspan.noVer,E7
149,55.0,S,9.0,2.0,stand,2,stand,2869.0,spOspan.noVer,E7
150,55.0,S,9.0,3.0,hand,3,hand,3309.0,spOspan.noVer,E7
151,55.0,S,10.0,0.0,doll,0,doll,3088.0,spOspan.noVer,E7
152,55.0,S,10.0,1.0,ball,1,ball,3192.0,spOspan.noVer,E7
153,55.0,S,10.0,2.0,shawl,2,shawl,3164.0,spOspan.noVer,E7
154,55.0,S,10.0,3.0,hall,3,,3384.0,spOspan.noVer,E7
155,55.0,S,10.0,4.0,brawl,4,brawl,3764.0,spOspan.noVer,E7
156,55.0,S,10.0,5.0,wall,,,3649.0,spOspan.noVer,E7
157,55.0,S,11.0,0.0,cream,0,cream,3418.0,spOspan.noVer,E7
158,55.0,S,11.0,1.0,team,1,team,2949.0,spOspan.noVer,E7
159,55.0,S,11.0,2.0,steam,2,steam,3667.0,spOspan.noVer,E7
160,55.0,S,12.0,0.0,deer,0,deer,3392.0,spOspan.noVer,E7
161,55.0,S,12.0,1.0,sphere,1,sphere,3291.0,spOspan.noVer,E7
162,55.0,S,12.0,2.0,ear,2,,3764.0,spOspan.noVer,E7
163,55.0,S,12.0,3.0,tear,3,tear,4079.0,spOspan.noVer,E7
164,55.0,S,13.0,0.0,mail,0,mail,4056.0,spOspan.noVer,E7
165,55.0,S,13.0,1.0,sail,1,sail,4026.0,spOspan.noVer,E7
166,55.0,S,13.0,2.0,trail,2,trail,4715.0,spOspan.noVer,E7
167,55.0,S,13.0,3.0,wail,3,,4704.0,spOspan.noVer,E7
168,55.0,S,13.0,4.0,tail,4,,3373.0,spOspan.noVer,E7
169,55.0,S,13.0,5.0,jail,5,jail,3865.0,spOspan.noVer,E7
170,55.0,S,14.0,0.0,bone,0,bone,3305.0,spOspan.noVer,E7
171,55.0,S,14.0,1.0,phone,1,phone,3080.0,spOspan.noVer,E7
172,55.0,S,14.0,2.0,stone,2,stone,3391.0,spOspan.noVer,E7
173,55.0,S,15.0,0.0,pie,0,pie,3839.0,spOspan.noVer,E7
174,55.0,S,15.0,1.0,fly,1,fly,3090.0,spOspan.noVer,E7
175,55.0,S,15.0,2.0,tie,2,sky,3529.0,spOspan.noVer,E7
176,55.0,S,15.0,3.0,sky,3,,3653.0,spOspan.noVer,E7
177,55.0,S,15.0,4.0,eye,4,eye,4232.0,spOspan.noVer,E7
178,55.0,D,16.0,0.0,chest,0,chest,4747.0,spOspan.noVer,E7
179,55.0,D,16.0,1.0,lane,1,lane,2990.0,spOspan.noVer,E7
180,55.0,D,16.0,2.0,hair,2,hair,3643.0,spOspan.noVer,E7
181,55.0,D,16.0,3.0,crown,3,crown,3867.0,spOspan.noVer,E7
182,55.0,D,17.0,0.0,rice,0,rice,3037.0,spOspan.noVer,E7
183,55.0,D,17.0,1.0,cat,1,cat,2567.0,spOspan.noVer,E7
184,55.0,D,17.0,2.0,trash,2,trash,4148.0,spOspan.noVer,E7
185,55.0,D,18.0,0.0,shell,0,shell,3628.0,spOspan.noVer,E7
186,55.0,D,18.0,1.0,tree,1,broom,2750.0,spOspan.noVer,E7
187,55.0,D,18.0,2.0,bowl,2,,4147.0,spOspan.noVer,E7
188,55.0,D,18.0,3.0,broom,3,test,5631.0,spOspan.noVer,E7
189,55.0,D,18.0,4.0,test,4,ground,4222.0,spOspan.noVer,E7
190,55.0,D,18.0,5.0,ground,,,4008.0,spOspan.noVer,E7
191,55.0,D,19.0,0.0,coin,0,coin,3892.0,spOspan.noVer,E7
192,55.0,D,19.0,1.0,film,1,film,4668.0,spOspan.noVer,E7
193,55.0,D,19.0,2.0,leaf,2,leaf,3651.0,spOspan.noVer,E7
194,55.0,D,19.0,3.0,train,3,train,4628.0,spOspan.noVer,E7
195,55.0,D,19.0,4.0,map,4,art,5836.0,spOspan.noVer,E7
196,55.0,D,19.0,5.0,art,,,3315.0,spOspan.noVer,E7
197,55.0,D,20.0,0.0,deck,0,deck,3612.0,spOspan.noVer,E7
198,55.0,D,20.0,1.0,slice,1,slice,3174.0,spOspan.noVer,E7
199,55.0,D,20.0,2.0,rat,2,rat,3289.0,spOspan.noVer,E7
200,55.0,D,21.0,0.0,spice,0,spice,3887.0,spOspan.noVer,E7
201,55.0,D,21.0,1.0,heat,1,heat,2751.0,spOspan.noVer,E7
202,55.0,D,21.0,2.0,shape,2,,3445.0,spOspan.noVer,E7
203,55.0,D,21.0,3.0,pear,3,air,4157.0,spOspan.noVer,E7
204,55.0,D,21.0,4.0,guest,4,guest,3433.0,spOspan.noVer,E7
205,55.0,D,22.0,0.0,toy,0,toy,3693.0,spOspan.noVer,E7
206,55.0,D,22.0,1.0,wreck,1,wreck,3108.0,spOspan.noVer,E7
207,55.0,D,22.0,2.0,frown,2,frown,3523.0,spOspan.noVer,E7
208,55.0,D,23.0,0.0,path,0,path,2810.0,spOspan.noVer,E7
209,55.0,D,23.0,1.0,nest,1,nest,2558.0,spOspan.noVer,E7
210,55.0,D,23.0,2.0,square,2,,3411.0,spOspan.noVer,E7
211,55.0,D,23.0,3.0,wood,3,,3716.0,spOspan.noVer,E7
212,55.0,D,23.0,4.0,beach,4,beach,3034.0,spOspan.noVer,E7
213,55.0,D,24.0,0.0,beard,0,beard,4462.0,spOspan.noVer,E7
214,55.0,D,24.0,1.0,hill,1,hill,3591.0,spOspan.noVer,E7
215,55.0,D,24.0,2.0,dirt,2,dirt,4474.0,spOspan.noVer,E7
216,55.0,D,24.0,3.0,card,3,card,5241.0,spOspan.noVer,E7
217,55.0,D,24.0,4.0,line,4,line,3752.0,spOspan.noVer,E7
218,55.0,D,25.0,0.0,neck,0,neck,4118.0,spOspan.noVer,E7
219,55.0,D,25.0,1.0,town,1,town,3309.0,spOspan.noVer,E7
220,55.0,D,25.0,2.0,hat,2,hat,4170.0,spOspan.noVer,E7
221,55.0,D,25.0,3.0,street,3,street,3310.0,spOspan.noVer,E7
222,55.0,D,26.0,0.0,mare,0,mare,3116.0,spOspan.noVer,E7
223,55.0,D,26.0,1.0,bell,1,bell,3484.0,spOspan.noVer,E7
224,55.0,D,26.0,2.0,brain,2,brain,2997.0,spOspan.noVer,E7
225,55.0,D,26.0,3.0,beef,3,beef,3792.0,spOspan.noVer,E7
226,55.0,D,27.0,0.0,ant,0,ant,3605.0,spOspan.noVer,E7
227,55.0,D,27.0,1.0,air,1,air,3417.0,spOspan.noVer,E7
228,55.0,D,27.0,2.0,ink,2,ink,3708.0,spOspan.noVer,E7
229,55.0,D,27.0,3.0,cloud,3,,3938.0,spOspan.noVer,E7
230,55.0,D,27.0,4.0,seat,4,breath,3646.0,spOspan.noVer,E7
231,55.0,D,27.0,5.0,breath,,,3647.0,spOspan.noVer,E7
232,57.0,P,0.0,0.0,farm,0,farm,,spOspan.noVer,E7
233,57.0,P,0.0,1.0,arm,1,arm,,spOspan.noVer,E7
234,57.0,P,1.0,0.0,bath,0,dawn,,spOspan.noVer,E7
235,57.0,P,1.0,1.0,dawn,,,,spOspan.noVer,E7
236,57.0,P,2.0,0.0,earth,0,earth,,spOspan.noVer,E7
237,57.0,P,2.0,1.0,peach,1,peach,,spOspan.noVer,E7
238,57.0,P,3.0,0.0,hood,0,hood,,spOspan.noVer,E7
239,57.0,P,3.0,1.0,wood,1,wood,,spOspan.noVer,E7
240,57.0,D,4.0,0.0,spice,0,spice,3928.0,spOspan.noVer,E7
241,57.0,D,4.0,1.0,heat,1,heat,3909.0,spOspan.noVer,E7
242,57.0,D,4.0,2.0,shape,2,earth,3571.0,spOspan.noVer,E7
243,57.0,D,4.0,3.0,pear,3,shape,3510.0,spOspan.noVer,E7
244,57.0,D,4.0,4.0,guest,4,pear,3637.0,spOspan.noVer,E7
245,57.0,D,5.0,0.0,rice,0,rice,4870.0,spOspan.noVer,E7
246,57.0,D,5.0,1.0,cat,1,cat,3389.0,spOspan.noVer,E7
247,57.0,D,5.0,2.0,trash,2,trash,3752.0,spOspan.noVer,E7
248,57.0,D,6.0,0.0,mare,0,mare,4331.0,spOspan.noVer,E7
249,57.0,D,6.0,1.0,bell,1,bell,4457.0,spOspan.noVer,E7
250,57.0,D,6.0,2.0,brain,2,brain,3727.0,spOspan.noVer,E7
251,57.0,D,6.0,3.0,beef,3,beef,3918.0,spOspan.noVer,E7
252,57.0,D,7.0,0.0,coin,0,film,3756.0,spOspan.noVer,E7
253,57.0,D,7.0,1.0,film,1,coin,3375.0,spOspan.noVer,E7
254,57.0,D,7.0,2.0,leaf,2,train,3820.0,spOspan.noVer,E7
255,57.0,D,7.0,3.0,train,3,map,3622.0,spOspan.noVer,E7
256,57.0,D,7.0,4.0,map,4,leaf,3806.0,spOspan.noVer,E7
257,57.0,D,7.0,5.0,art,5,art,3672.0,spOspan.noVer,E7
258,57.0,D,8.0,0.0,path,0,path,3931.0,spOspan.noVer,E7
259,57.0,D,8.0,1.0,nest,1,nest,3479.0,spOspan.noVer,E7
260,57.0,D,8.0,2.0,square,2,square,3198.0,spOspan.noVer,E7
261,57.0,D,8.0,3.0,wood,3,wood,3403.0,spOspan.noVer,E7
262,57.0,D,8.0,4.0,beach,4,beach,3525.0,spOspan.noVer,E7
263,57.0,D,9.0,0.0,deck,0,deck,4070.0,spOspan.noVer,E7
264,57.0,D,9.0,1.0,slice,1,slice,3806.0,spOspan.noVer,E7
265,57.0,D,9.0,2.0,rat,2,rat,4352.0,spOspan.noVer,E7
266,57.0,D,10.0,0.0,beard,0,beard,4126.0,spOspan.noVer,E7
267,57.0,D,10.0,1.0,hill,1,hill,3684.0,spOspan.noVer,E7
268,57.0,D,10.0,2.0,dirt,2,dirt,4132.0,spOspan.noVer,E7
269,57.0,D,10.0,3.0,card,3,card,3921.0,spOspan.noVer,E7
270,57.0,D,10.0,4.0,line,4,line,4030.0,spOspan.noVer,E7
271,57.0,D,11.0,0.0,neck,0,neck,4600.0,spOspan.noVer,E7
272,57.0,D,11.0,1.0,town,1,town,3819.0,spOspan.noVer,E7
273,57.0,D,11.0,2.0,hat,2,hat,4421.0,spOspan.noVer,E7
274,57.0,D,11.0,3.0,street,3,street,4414.0,spOspan.noVer,E7
275,57.0,D,12.0,0.0,shell,0,shell,4250.0,spOspan.noVer,E7
276,57.0,D,12.0,1.0,tree,1,tree,3866.0,spOspan.noVer,E7
277,57.0,D,12.0,2.0,bowl,2,test,4058.0,spOspan.noVer,E7
278,57.0,D,12.0,3.0,broom,3,ground,4122.0,spOspan.noVer,E7
279,57.0,D,12.0,4.0,test,,,3847.0,spOspan.noVer,E7
280,57.0,D,12.0,5.0,ground,,,3399.0,spOspan.noVer,E7
281,57.0,D,13.0,0.0,ant,0,ant,3624.0,spOspan.noVer,E7
282,57.0,D,13.0,1.0,air,1,air,3657.0,spOspan.noVer,E7
283,57.0,D,13.0,2.0,ink,2,cloud,3537.0,spOspan.noVer,E7
284,57.0,D,13.0,3.0,cloud,3,seat,4487.0,spOspan.noVer,E7
285,57.0,D,13.0,4.0,seat,4,breath,3638.0,spOspan.noVer,E7
286,57.0,D,13.0,5.0,breath,,,3615.0,spOspan.noVer,E7
287,57.0,D,14.0,0.0,chest,0,chest,3417.0,spOspan.noVer,E7
288,57.0,D,14.0,1.0,lane,1,hair,3837.0,spOspan.noVer,E7
289,57.0,D,14.0,2.0,hair,2,lane,4149.0,spOspan.noVer,E7
290,57.0,D,14.0,3.0,crown,3,crown,3938.0,spOspan.noVer,E7
291,57.0,D,15.0,0.0,toy,0,toy,3484.0,spOspan.noVer,E7
292,57.0,D,15.0,1.0,wreck,1,wreck,3485.0,spOspan.noVer,E7
293,57.0,D,15.0,2.0,frown,2,frown,3684.0,spOspan.noVer,E7
294,57.0,S,16.0,0.0,doll,0,doll,3596.0,spOspan.noVer,E7
295,57.0,S,16.0,1.0,ball,1,ball,3151.0,spOspan.noVer,E7
296,57.0,S,16.0,2.0,shawl,2,shawl,3754.0,spOspan.noVer,E7
297,57.0,S,16.0,3.0,hall,3,hall,3829.0,spOspan.noVer,E7
298,57.0,S,16.0,4.0,brawl,4,brawl,3496.0,spOspan.noVer,E7
299,57.0,S,16.0,5.0,wall,5,wall,3806.0,spOspan.noVer,E7
300,57.0,S,17.0,0.0,pie,0,pie,3716.0,spOspan.noVer,E7
301,57.0,S,17.0,1.0,fly,1,fly,3554.0,spOspan.noVer,E7
302,57.0,S,17.0,2.0,tie,2,tie,3549.0,spOspan.noVer,E7
303,57.0,S,17.0,3.0,sky,3,sky,3579.0,spOspan.noVer,E7
304,57.0,S,17.0,4.0,eye,4,,3767.0,spOspan.noVer,E7
305,57.0,S,18.0,0.0,cream,0,cream,4592.0,spOspan.noVer,E7
306,57.0,S,18.0,1.0,team,1,team,3762.0,spOspan.noVer,E7
307,57.0,S,18.0,2.0,steam,2,steam,3807.0,spOspan.noVer,E7
308,57.0,S,19.0,0.0,blouse,0,blouse,3326.0,spOspan.noVer,E7
309,57.0,S,19.0,1.0,house,1,house,3755.0,spOspan.noVer,E7
310,57.0,S,19.0,2.0,mouse,2,mouse,3646.0,spOspan.noVer,E7
311,57.0,S,20.0,0.0,jar,0,jar,3528.0,spOspan.noVer,E7
312,57.0,S,20.0,1.0,bar,1,bar,3061.0,spOspan.noVer,E7
313,57.0,S,20.0,2.0,car,2,car,3838.0,spOspan.noVer,E7
314,57.0,S,20.0,3.0,scar,3,,3998.0,spOspan.noVer,E7
315,57.0,S,20.0,4.0,star,4,star,4183.0,spOspan.noVer,E7
316,57.0,S,21.0,0.0,mail,0,mail,4477.0,spOspan.noVer,E7
317,57.0,S,21.0,1.0,sail,1,sail,3557.0,spOspan.noVer,E7
318,57.0,S,21.0,2.0,trail,2,,4145.0,spOspan.noVer,E7
319,57.0,S,21.0,3.0,wail,3,,3908.0,spOspan.noVer,E7
320,57.0,S,21.0,4.0,tail,4,jail,3579.0,spOspan.noVer,E7
321,57.0,S,21.0,5.0,jail,,,4309.0,spOspan.noVer,E7
322,57.0,S,22.0,0.0,deer,0,,3911.0,spOspan.noVer,E7
323,57.0,S,22.0,1.0,sphere,1,sphere,3215.0,spOspan.noVer,E7
324,57.0,S,22.0,2.0,ear,2,ear,3849.0,spOspan.noVer,E7
325,57.0,S,22.0,3.0,tear,3,tear,4338.0,spOspan.noVer,E7
326,57.0,S,23.0,0.0,king,0,king,3991.0,spOspan.noVer,E7
327,57.0,S,23.0,1.0,ring,1,ring,3780.0,spOspan.noVer,E7
328,57.0,S,23.0,2.0,spring,2,spring,3631.0,spOspan.noVer,E7
329,57.0,S,23.0,3.0,string,3,string,4207.0,spOspan.noVer,E7
330,57.0,S,23.0,4.0,wing,4,wing,4137.0,spOspan.noVer,E7
331,57.0,S,24.0,0.0,bread,0,bread,3027.0,spOspan.noVer,E7
332,57.0,S,24.0,1.0,head,1,head,3893.0,spOspan.noVer,E7
333,57.0,S,24.0,2.0,thread,2,thread,3660.0,spOspan.noVer,E7
334,57.0,S,24.0,3.0,bed,3,bed,4643.0,spOspan.noVer,E7
335,57.0,S,25.0,0.0,bone,0,bone,4520.0,spOspan.noVer,E7
336,57.0,S,25.0,1.0,phone,1,phone,3574.0,spOspan.noVer,E7
337,57.0,S,25.0,2.0,stone,2,stone,4225.0,spOspan.noVer,E7
338,57.0,S,26.0,0.0,band,0,band,3579.0,spOspan.noVer,E7
339,57.0,S,26.0,1.0,land,1,land,3885.0,spOspan.noVer,E7
340,57.0,S,26.0,2.0,stand,2,stand,3694.0,spOspan.noVer,E7
341,57.0,S,26.0,3.0,hand,3,hand,4035.0,spOspan.noVer,E7
342,57.0,S,27.0,0.0,boot,0,boot,3484.0,spOspan.noVer,E7
343,57.0,S,27.0,1.0,suit,1,suit,4011.0,spOspan.noVer,E7
344,57.0,S,27.0,2.0,flute,2,,3316.0,spOspan.noVer,E7
345,57.0,S,27.0,3.0,loot,3,loot,4123.0,spOspan.noVer,E7
346,57.0,S,27.0,4.0,root,4,flute,3863.0,spOspan.noVer,E7
347,57.0,S,27.0,5.0,brute,5,brute,4343.0,spOspan.noVer,E7
348,58.0,P,0.0,0.0,earth,0,earth,,spOspan.noVer,E7
349,58.0,P,0.0,1.0,peach,1,peach,,spOspan.noVer,E7
350,58.0,P,1.0,0.0,farm,0,farm,,spOspan.noVer,E7
351,58.0,P,1.0,1.0,arm,1,arm,,spOspan.noVer,E7
352,58.0,P,2.0,0.0,hood,0,hood,,spOspan.noVer,E7
353,58.0,P,2.0,1.0,wood,1,wood,,spOspan.noVer,E7
354,58.0,P,3.0,0.0,bath,0,bath,,spOspan.noVer,E7
355,58.0,P,3.0,1.0,dawn,1,dawn,,spOspan.noVer,E7
356,58.0,S,4.0,0.0,bread,0,bread,2961.0,spOspan.noVer,E7
357,58.0,S,4.0,1.0,head,1,head,2429.0,spOspan.noVer,E7
358,58.0,S,4.0,2.0,thread,2,thread,3032.0,spOspan.noVer,E7
359,58.0,S,4.0,3.0,bed,3,bed,3315.0,spOspan.noVer,E7
360,58.0,S,5.0,0.0,blouse,0,blouse,2948.0,spOspan.noVer,E7
361,58.0,S,5.0,1.0,house,1,house,3483.0,spOspan.noVer,E7
362,58.0,S,5.0,2.0,mouse,2,mouse,2786.0,spOspan.noVer,E7
363,58.0,S,6.0,0.0,bone,0,bone,3366.0,spOspan.noVer,E7
364,58.0,S,6.0,1.0,phone,1,phone,3042.0,spOspan.noVer,E7
365,58.0,S,6.0,2.0,stone,2,stone,3026.0,spOspan.noVer,E7
366,58.0,S,7.0,0.0,deer,0,deer,3424.0,spOspan.noVer,E7
367,58.0,S,7.0,1.0,sphere,1,,3218.0,spOspan.noVer,E7
368,58.0,S,7.0,2.0,ear,2,,3717.0,spOspan.noVer,E7
369,58.0,S,7.0,3.0,tear,3,ear,3011.0,spOspan.noVer,E7
370,58.0,S,8.0,0.0,boot,0,boot,2747.0,spOspan.noVer,E7
371,58.0,S,8.0,1.0,suit,1,suite,2875.0,spOspan.noVer,E7
372,58.0,S,8.0,2.0,flute,2,flute,2890.0,spOspan.noVer,E7
373,58.0,S,8.0,3.0,loot,3,loot,3377.0,spOspan.noVer,E7
374,58.0,S,8.0,4.0,root,4,,3438.0,spOspan.noVer,E7
375,58.0,S,8.0,5.0,brute,5,brute,2935.0,spOspan.noVer,E7
376,58.0,S,9.0,0.0,band,0,band,2952.0,spOspan.noVer,E7
377,58.0,S,9.0,1.0,land,1,stand,2950.0,spOspan.noVer,E7
378,58.0,S,9.0,2.0,stand,2,hand,2387.0,spOspan.noVer,E7
379,58.0,S,9.0,3.0,hand,,,2679.0,spOspan.noVer,E7
380,58.0,S,10.0,0.0,cream,0,team,3014.0,spOspan.noVer,E7
381,58.0,S,10.0,1.0,team,1,cream,3698.0,spOspan.noVer,E7
382,58.0,S,10.0,2.0,steam,2,steam,2495.0,spOspan.noVer,E7
383,58.0,S,11.0,0.0,doll,0,doll,2858.0,spOspan.noVer,E7
384,58.0,S,11.0,1.0,ball,1,hall,2603.0,spOspan.noVer,E7
385,58.0,S,11.0,2.0,shawl,2,brawl,3797.0,spOspan.noVer,E7
386,58.0,S,11.0,3.0,hall,,,3112.0,spOspan.noVer,E7
387,58.0,S,11.0,4.0,brawl,,,2991.0,spOspan.noVer,E7
388,58.0,S,11.0,5.0,wall,,,3027.0,spOspan.noVer,E7
389,58.0,S,12.0,0.0,jar,0,bar,3029.0,spOspan.noVer,E7
390,58.0,S,12.0,1.0,bar,1,jar,3192.0,spOspan.noVer,E7
391,58.0,S,12.0,2.0,car,2,car,3507.0,spOspan.noVer,E7
392,58.0,S,12.0,3.0,scar,3,star,3305.0,spOspan.noVer,E7
393,58.0,S,12.0,4.0,star,,,2704.0,spOspan.noVer,E7
394,58.0,S,13.0,0.0,mail,0,mail,4363.0,spOspan.noVer,E7
395,58.0,S,13.0,1.0,sail,1,trail,3800.0,spOspan.noVer,E7
396,58.0,S,13.0,2.0,trail,2,sail,2914.0,spOspan.noVer,E7
397,58.0,S,13.0,3.0,wail,3,tail,2881.0,spOspan.noVer,E7
398,58.0,S,13.0,4.0,tail,4,,3361.0,spOspan.noVer,E7
399,58.0,S,13.0,5.0,jail,,,2877.0,spOspan.noVer,E7
400,58.0,S,14.0,0.0,king,0,sing,3585.0,spOspan.noVer,E7
401,58.0,S,14.0,1.0,ring,1,king,2310.0,spOspan.noVer,E7
402,58.0,S,14.0,2.0,spring,2,wing,2533.0,spOspan.noVer,E7
403,58.0,S,14.0,3.0,string,3,spring,2755.0,spOspan.noVer,E7
404,58.0,S,14.0,4.0,wing,,,2929.0,spOspan.noVer,E7
405,58.0,S,15.0,0.0,pie,0,pie,2753.0,spOspan.noVer,E7
406,58.0,S,15.0,1.0,fly,1,fly,2807.0,spOspan.noVer,E7
407,58.0,S,15.0,2.0,tie,2,,2890.0,spOspan.noVer,E7
408,58.0,S,15.0,3.0,sky,3,sky,2449.0,spOspan.noVer,E7
409,58.0,S,15.0,4.0,eye,4,tie,2645.0,spOspan.noVer,E7
410,58.0,D,16.0,0.0,spice,0,spice,3048.0,spOspan.noVer,E7
411,58.0,D,16.0,1.0,heat,1,heat,2978.0,spOspan.noVer,E7
412,58.0,D,16.0,2.0,shape,2,shape,2710.0,spOspan.noVer,E7
413,58.0,D,16.0,3.0,pear,3,pear,2781.0,spOspan.noVer,E7
414,58.0,D,16.0,4.0,guest,4,guest,2874.0,spOspan.noVer,E7
415,58.0,D,17.0,0.0,chest,0,chest,3058.0,spOspan.noVer,E7
416,58.0,D,17.0,1.0,lane,1,lane,3124.0,spOspan.noVer,E7
417,58.0,D,17.0,2.0,hair,2,hair,3001.0,spOspan.noVer,E7
418,58.0,D,17.0,3.0,crown,3,crown,3221.0,spOspan.noVer,E7
419,58.0,D,18.0,0.0,coin,0,film,2982.0,spOspan.noVer,E7
420,58.0,D,18.0,1.0,film,1,train,2907.0,spOspan.noVer,E7
421,58.0,D,18.0,2.0,leaf,2,coin,3241.0,spOspan.noVer,E7
422,58.0,D,18.0,3.0,train,3,map,3066.0,spOspan.noVer,E7
423,58.0,D,18.0,4.0,map,4,art,3715.0,spOspan.noVer,E7
424,58.0,D,18.0,5.0,art,,,3185.0,spOspan.noVer,E7
425,58.0,D,19.0,0.0,path,0,path,3347.0,spOspan.noVer,E7
426,58.0,D,19.0,1.0,nest,1,,2561.0,spOspan.noVer,E7
427,58.0,D,19.0,2.0,square,2,square,2575.0,spOspan.noVer,E7
428,58.0,D,19.0,3.0,wood,3,wood,2692.0,spOspan.noVer,E7
429,58.0,D,19.0,4.0,beach,,,2635.0,spOspan.noVer,E7
430,58.0,D,20.0,0.0,neck,0,neck,3379.0,spOspan.noVer,E7
431,58.0,D,20.0,1.0,town,1,town,2959.0,spOspan.noVer,E7
432,58.0,D,20.0,2.0,hat,2,hat,2836.0,spOspan.noVer,E7
433,58.0,D,20.0,3.0,street,3,street,3238.0,spOspan.noVer,E7
434,58.0,D,21.0,0.0,mare,0,mare,3167.0,spOspan.noVer,E7
435,58.0,D,21.0,1.0,bell,1,bell,2750.0,spOspan.noVer,E7
436,58.0,D,21.0,2.0,brain,2,brain,2572.0,spOspan.noVer,E7
437,58.0,D,21.0,3.0,beef,3,beef,3624.0,spOspan.noVer,E7
438,58.0,D,22.0,0.0,toy,0,toy,3085.0,spOspan.noVer,E7
439,58.0,D,22.0,1.0,wreck,1,wreck,2837.0,spOspan.noVer,E7
440,58.0,D,22.0,2.0,frown,2,frowm,3136.0,spOspan.noVer,E7
441,58.0,D,23.0,0.0,deck,0,deck,3316.0,spOspan.noVer,E7
442,58.0,D,23.0,1.0,slice,1,slice,3196.0,spOspan.noVer,E7
443,58.0,D,23.0,2.0,rat,2,rat,2856.0,spOspan.noVer,E7
444,58.0,D,24.0,0.0,rice,0,rice,3344.0,spOspan.noVer,E7
445,58.0,D,24.0,1.0,cat,1,cat,3821.0,spOspan.noVer,E7
446,58.0,D,24.0,2.0,trash,2,trash,2879.0,spOspan.noVer,E7
447,58.0,D,25.0,0.0,shell,0,deck,3351.0,spOspan.noVer,E7
448,58.0,D,25.0,1.0,tree,1,,2700.0,spOspan.noVer,E7
449,58.0,D,25.0,2.0,bowl,2,bowl,1829.0,spOspan.noVer,E7
450,58.0,D,25.0,3.0,broom,3,broom,2976.0,spOspan.noVer,E7
451,58.0,D,25.0,4.0,test,4,test,3572.0,spOspan.noVer,E7
452,58.0,D,25.0,5.0,ground,5,,3223.0,spOspan.noVer,E7
453,58.0,D,26.0,0.0,beard,0,beard,3069.0,spOspan.noVer,E7
454,58.0,D,26.0,1.0,hill,1,hill,2581.0,spOspan.noVer,E7
455,58.0,D,26.0,2.0,dirt,2,dirt,2746.0,spOspan.noVer,E7
456,58.0,D,26.0,3.0,card,3,,2782.0,spOspan.noVer,E7
457,58.0,D,26.0,4.0,line,4,card,3300.0,spOspan.noVer,E7
458,58.0,D,27.0,0.0,ant,0,ant,3200.0,spOspan.noVer,E7
459,58.0,D,27.0,1.0,air,1,air,2948.0,spOspan.noVer,E7
460,58.0,D,27.0,2.0,ink,2,ink,2778.0,spOspan.noVer,E7
461,58.0,D,27.0,3.0,cloud,3,cloud,3070.0,spOspan.noVer,E7
462,58.0,D,27.0,4.0,seat,4,seat,3356.0,spOspan.noVer,E7
463,58.0,D,27.0,5.0,breath,5,breath,2819.0,spOspan.noVer,E7
464,59.0,P,0.0,0.0,farm,0,farm,,spOspan.noVer,E7
465,59.0,P,0.0,1.0,arm,1,arm,,spOspan.noVer,E7
466,59.0,P,1.0,0.0,bath,0,bath,,spOspan.noVer,E7
467,59.0,P,1.0,1.0,dawn,1,dawn,,spOspan.noVer,E7
468,59.0,P,2.0,0.0,earth,0,earth,,spOspan.noVer,E7
469,59.0,P,2.0,1.0,peach,1,peach,,spOspan.noVer,E7
470,59.0,P,3.0,0.0,hood,0,hood,,spOspan.noVer,E7
471,59.0,P,3.0,1.0,wood,1,wood,,spOspan.noVer,E7
472,59.0,D,4.0,0.0,shell,0,shell,4032.0,spOspan.noVer,E7
473,59.0,D,4.0,1.0,tree,1,,4210.0,spOspan.noVer,E7
474,59.0,D,4.0,2.0,bowl,2,bowl,4203.0,spOspan.noVer,E7
475,59.0,D,4.0,3.0,broom,3,ground,4774.0,spOspan.noVer,E7
476,59.0,D,4.0,4.0,test,,,4832.0,spOspan.noVer,E7
477,59.0,D,4.0,5.0,ground,,,4152.0,spOspan.noVer,E7
478,59.0,D,5.0,0.0,coin,0,coin,4092.0,spOspan.noVer,E7
479,59.0,D,5.0,1.0,film,1,film,4867.0,spOspan.noVer,E7
480,59.0,D,5.0,2.0,leaf,2,leaf,4377.0,spOspan.noVer,E7
481,59.0,D,5.0,3.0,train,3,map,3956.0,spOspan.noVer,E7
482,59.0,D,5.0,4.0,map,4,art,5327.0,spOspan.noVer,E7
483,59.0,D,5.0,5.0,art,,,4027.0,spOspan.noVer,E7
484,59.0,D,6.0,0.0,beard,0,dirt,5492.0,spOspan.noVer,E7
485,59.0,D,6.0,1.0,hill,1,hill,4144.0,spOspan.noVer,E7
486,59.0,D,6.0,2.0,dirt,2,beard,4069.0,spOspan.noVer,E7
487,59.0,D,6.0,3.0,card,3,line,4133.0,spOspan.noVer,E7
488,59.0,D,6.0,4.0,line,,,4569.0,spOspan.noVer,E7
489,59.0,D,7.0,0.0,neck,0,,3908.0,spOspan.noVer,E7
490,59.0,D,7.0,1.0,town,1,,3906.0,spOspan.noVer,E7
491,59.0,D,7.0,2.0,hat,2,,4289.0,spOspan.noVer,E7
492,59.0,D,7.0,3.0,street,3,,5254.0,spOspan.noVer,E7
493,59.0,D,8.0,0.0,ant,0,art,4422.0,spOspan.noVer,E7
494,59.0,D,8.0,1.0,air,1,,3984.0,spOspan.noVer,E7
495,59.0,D,8.0,2.0,ink,2,,4739.0,spOspan.noVer,E7
496,59.0,D,8.0,3.0,cloud,3,,4639.0,spOspan.noVer,E7
497,59.0,D,8.0,4.0,seat,4,,4864.0,spOspan.noVer,E7
498,59.0,D,8.0,5.0,breath,5,breath,4630.0,spOspan.noVer,E7
499,59.0,D,9.0,0.0,spice,0,,4508.0,spOspan.noVer,E7
500,59.0,D,9.0,1.0,heat,1,,4249.0,spOspan.noVer,E7
501,59.0,D,9.0,2.0,shape,2,,3394.0,spOspan.noVer,E7
502,59.0,D,9.0,3.0,pear,3,,4542.0,spOspan.noVer,E7
503,59.0,D,9.0,4.0,guest,4,,4250.0,spOspan.noVer,E7
504,59.0,D,10.0,0.0,rice,0,,4477.0,spOspan.noVer,E7
505,59.0,D,10.0,1.0,cat,1,cat,4180.0,spOspan.noVer,E7
506,59.0,D,10.0,2.0,trash,2,trash,3960.0,spOspan.noVer,E7
507,59.0,D,11.0,0.0,path,0,path,3846.0,spOspan.noVer,E7
508,59.0,D,11.0,1.0,nest,1,wood,4375.0,spOspan.noVer,E7
509,59.0,D,11.0,2.0,square,2,beach,3978.0,spOspan.noVer,E7
510,59.0,D,11.0,3.0,wood,,,5484.0,spOspan.noVer,E7
511,59.0,D,11.0,4.0,beach,,,4459.0,spOspan.noVer,E7
512,59.0,D,12.0,0.0,chest,0,chest,4060.0,spOspan.noVer,E7
513,59.0,D,12.0,1.0,lane,1,lane,4148.0,spOspan.noVer,E7
514,59.0,D,12.0,2.0,hair,2,hair,4464.0,spOspan.noVer,E7
515,59.0,D,12.0,3.0,crown,3,crown,4048.0,spOspan.noVer,E7
516,59.0,D,13.0,0.0,mare,0,mare,3939.0,spOspan.noVer,E7
517,59.0,D,13.0,1.0,bell,1,bell,4736.0,spOspan.noVer,E7
518,59.0,D,13.0,2.0,brain,2,brain,4165.0,spOspan.noVer,E7
519,59.0,D,13.0,3.0,beef,3,beef,5257.0,spOspan.noVer,E7
520,59.0,D,14.0,0.0,deck,0,deck,4203.0,spOspan.noVer,E7
521,59.0,D,14.0,1.0,slice,1,slice,3990.0,spOspan.noVer,E7
522,59.0,D,14.0,2.0,rat,2,rat,4064.0,spOspan.noVer,E7
523,59.0,D,15.0,0.0,toy,0,toy,3694.0,spOspan.noVer,E7
524,59.0,D,15.0,1.0,wreck,1,wreck,3406.0,spOspan.noVer,E7
525,59.0,D,15.0,2.0,frown,2,frown,3705.0,spOspan.noVer,E7
526,59.0,S,16.0,0.0,band,0,band,5627.0,spOspan.noVer,E7
527,59.0,S,16.0,1.0,land,1,land,3545.0,spOspan.noVer,E7
528,59.0,S,16.0,2.0,stand,2,stand,4414.0,spOspan.noVer,E7
529,59.0,S,16.0,3.0,hand,3,hand,4825.0,spOspan.noVer,E7
530,59.0,S,17.0,0.0,boot,0,boot,3589.0,spOspan.noVer,E7
531,59.0,S,17.0,1.0,suit,1,suit,3559.0,spOspan.noVer,E7
532,59.0,S,17.0,2.0,flute,2,flute,3493.0,spOspan.noVer,E7
533,59.0,S,17.0,3.0,loot,3,loot,6693.0,spOspan.noVer,E7
534,59.0,S,17.0,4.0,root,4,brute,3345.0,spOspan.noVer,E7
535,59.0,S,17.0,5.0,brute,,,5678.0,spOspan.noVer,E7
536,59.0,S,18.0,0.0,deer,0,deer,3600.0,spOspan.noVer,E7
537,59.0,S,18.0,1.0,sphere,1,sphere,3932.0,spOspan.noVer,E7
538,59.0,S,18.0,2.0,ear,2,ear,4001.0,spOspan.noVer,E7
539,59.0,S,18.0,3.0,tear,3,tear,5092.0,spOspan.noVer,E7
540,59.0,S,19.0,0.0,mail,0,wail,4825.0,spOspan.noVer,E7
541,59.0,S,19.0,1.0,sail,1,tail,3890.0,spOspan.noVer,E7
542,59.0,S,19.0,2.0,trail,2,mail,4423.0,spOspan.noVer,E7
543,59.0,S,19.0,3.0,wail,3,trail,3753.0,spOspan.noVer,E7
544,59.0,S,19.0,4.0,tail,4,jail,3294.0,spOspan.noVer,E7
545,59.0,S,19.0,5.0,jail,,,3156.0,spOspan.noVer,E7
546,59.0,S,20.0,0.0,king,0,king,3702.0,spOspan.noVer,E7
547,59.0,S,20.0,1.0,ring,1,ring,3662.0,spOspan.noVer,E7
548,59.0,S,20.0,2.0,spring,2,spring,3877.0,spOspan.noVer,E7
549,59.0,S,20.0,3.0,string,3,,4157.0,spOspan.noVer,E7
550,59.0,S,20.0,4.0,wing,4,wing,5514.0,spOspan.noVer,E7
551,59.0,S,21.0,0.0,cream,0,cream,3556.0,spOspan.noVer,E7
552,59.0,S,21.0,1.0,team,1,team,3809.0,spOspan.noVer,E7
553,59.0,S,21.0,2.0,steam,2,steam,3235.0,spOspan.noVer,E7
554,59.0,S,22.0,0.0,blouse,0,,3213.0,spOspan.noVer,E7
555,59.0,S,22.0,1.0,house,1,house,4488.0,spOspan.noVer,E7
556,59.0,S,22.0,2.0,mouse,2,mouse,5909.0,spOspan.noVer,E7
557,59.0,S,23.0,0.0,pie,0,pie,3451.0,spOspan.noVer,E7
558,59.0,S,23.0,1.0,fly,1,fly,3990.0,spOspan.noVer,E7
559,59.0,S,23.0,2.0,tie,2,sky,3903.0,spOspan.noVer,E7
560,59.0,S,23.0,3.0,sky,3,tie,4436.0,spOspan.noVer,E7
561,59.0,S,23.0,4.0,eye,,,4406.0,spOspan.noVer,E7
562,59.0,S,24.0,0.0,doll,0,doll,4128.0,spOspan.noVer,E7
563,59.0,S,24.0,1.0,ball,1,wall,3822.0,spOspan.noVer,E7
564,59.0,S,24.0,2.0,shawl,2,brawl,4056.0,spOspan.noVer,E7
565,59.0,S,24.0,3.0,hall,3,shawl,6134.0,spOspan.noVer,E7
566,59.0,S,24.0,4.0,brawl,,,3659.0,spOspan.noVer,E7
567,59.0,S,24.0,5.0,wall,,,3642.0,spOspan.noVer,E7
568,59.0,S,25.0,0.0,bone,0,bone,3502.0,spOspan.noVer,E7
569,59.0,S,25.0,1.0,phone,1,phone,3782.0,spOspan.noVer,E7
570,59.0,S,25.0,2.0,stone,2,stone,5049.0,spOspan.noVer,E7
571,59.0,S,26.0,0.0,bread,0,bread,3371.0,spOspan.noVer,E7
572,59.0,S,26.0,1.0,head,1,head,4174.0,spOspan.noVer,E7
573,59.0,S,26.0,2.0,thread,2,thread,4450.0,spOspan.noVer,E7
574,59.0,S,26.0,3.0,bed,3,bed,4657.0,spOspan.noVer,E7
575,59.0,S,27.0,0.0,jar,0,jar,3728.0,spOspan.noVer,E7
576,59.0,S,27.0,1.0,bar,1,bar,4175.0,spOspan.noVer,E7
577,59.0,S,27.0,2.0,car,2,car,4345.0,spOspan.noVer,E7
578,59.0,S,27.0,3.0,scar,3,scar,3941.0,spOspan.noVer,E7
579,59.0,S,27.0,4.0,star,4,star,4803.0,spOspan.noVer,E7
580,63.0,P,0.0,0.0,hood,0,hood,,spOspan.noVer,E7
581,63.0,P,0.0,1.0,wood,1,wood,,spOspan.noVer,E7
582,63.0,P,1.0,0.0,earth,0,earth,,spOspan.noVer,E7
583,63.0,P,1.0,1.0,peach,1,peach,,spOspan.noVer,E7
584,63.0,P,2.0,0.0,farm,0,farm,,spOspan.noVer,E7
585,63.0,P,2.0,1.0,arm,1,arm,,spOspan.noVer,E7
586,63.0,P,3.0,0.0,bath,0,bath,,spOspan.noVer,E7
587,63.0,P,3.0,1.0,dawn,1,dawn,,spOspan.noVer,E7
588,63.0,S,4.0,0.0,bone,0,bone,3788.0,spOspan.noVer,E7
589,63.0,S,4.0,1.0,phone,1,phone,3839.0,spOspan.noVer,E7
590,63.0,S,4.0,2.0,stone,2,stone,4040.0,spOspan.noVer,E7
591,63.0,S,5.0,0.0,bread,0,bread,3567.0,spOspan.noVer,E7
592,63.0,S,5.0,1.0,head,1,head,3804.0,spOspan.noVer,E7
593,63.0,S,5.0,2.0,thread,2,thread,3966.0,spOspan.noVer,E7
594,63.0,S,5.0,3.0,bed,3,bed,4242.0,spOspan.noVer,E7
595,63.0,S,6.0,0.0,pie,0,pie,3954.0,spOspan.noVer,E7
596,63.0,S,6.0,1.0,fly,1,fly,3768.0,spOspan.noVer,E7
597,63.0,S,6.0,2.0,tie,2,sky,3940.0,spOspan.noVer,E7
598,63.0,S,6.0,3.0,sky,3,tie,3704.0,spOspan.noVer,E7
599,63.0,S,6.0,4.0,eye,4,eye,4734.0,spOspan.noVer,E7
600,63.0,S,7.0,0.0,king,0,king,4355.0,spOspan.noVer,E7
601,63.0,S,7.0,1.0,ring,1,string,3503.0,spOspan.noVer,E7
602,63.0,S,7.0,2.0,spring,2,,3838.0,spOspan.noVer,E7
603,63.0,S,7.0,3.0,string,3,ring,3886.0,spOspan.noVer,E7
604,63.0,S,7.0,4.0,wing,,,4461.0,spOspan.noVer,E7
605,63.0,S,8.0,0.0,mail,0,mail,4001.0,spOspan.noVer,E7
606,63.0,S,8.0,1.0,sail,1,trail,4876.0,spOspan.noVer,E7
607,63.0,S,8.0,2.0,trail,2,sail,3931.0,spOspan.noVer,E7
608,63.0,S,8.0,3.0,wail,3,wail,4056.0,spOspan.noVer,E7
609,63.0,S,8.0,4.0,tail,4,jail,3952.0,spOspan.noVer,E7
610,63.0,S,8.0,5.0,jail,,,4268.0,spOspan.noVer,E7
611,63.0,S,9.0,0.0,boot,0,boot,3904.0,spOspan.noVer,E7
612,63.0,S,9.0,1.0,suit,1,suit,3557.0,spOspan.noVer,E7
613,63.0,S,9.0,2.0,flute,2,flute,3554.0,spOspan.noVer,E7
614,63.0,S,9.0,3.0,loot,3,loot,4005.0,spOspan.noVer,E7
615,63.0,S,9.0,4.0,root,4,brute,3768.0,spOspan.noVer,E7
616,63.0,S,9.0,5.0,brute,,,4124.0,spOspan.noVer,E7
617,63.0,S,10.0,0.0,blouse,0,blouse,4055.0,spOspan.noVer,E7
618,63.0,S,10.0,1.0,house,1,house,4136.0,spOspan.noVer,E7
619,63.0,S,10.0,2.0,mouse,2,mouse,3724.0,spOspan.noVer,E7
620,63.0,S,11.0,0.0,cream,0,cream,3810.0,spOspan.noVer,E7
621,63.0,S,11.0,1.0,team,1,team,3557.0,spOspan.noVer,E7
622,63.0,S,11.0,2.0,steam,2,steam,3577.0,spOspan.noVer,E7
623,63.0,S,12.0,0.0,doll,0,drawl,4124.0,spOspan.noVer,E7
624,63.0,S,12.0,1.0,ball,1,ball,4130.0,spOspan.noVer,E7
625,63.0,S,12.0,2.0,shawl,2,shawl,3560.0,spOspan.noVer,E7
626,63.0,S,12.0,3.0,hall,3,hall,3788.0,spOspan.noVer,E7
627,63.0,S,12.0,4.0,brawl,4,wall,3638.0,spOspan.noVer,E7
628,63.0,S,12.0,5.0,wall,5,brawl,4151.0,spOspan.noVer,E7
629,63.0,S,13.0,0.0,deer,0,deer,3836.0,spOspan.noVer,E7
630,63.0,S,13.0,1.0,sphere,1,beer,3366.0,spOspan.noVer,E7
631,63.0,S,13.0,2.0,ear,2,sphere,3330.0,spOspan.noVer,E7
632,63.0,S,13.0,3.0,tear,3,tear,4048.0,spOspan.noVer,E7
633,63.0,S,14.0,0.0,band,0,band,3260.0,spOspan.noVer,E7
634,63.0,S,14.0,1.0,land,1,land,3684.0,spOspan.noVer,E7
635,63.0,S,14.0,2.0,stand,2,stand,3149.0,spOspan.noVer,E7
636,63.0,S,14.0,3.0,hand,3,hand,4202.0,spOspan.noVer,E7
637,63.0,S,15.0,0.0,jar,0,jar,3730.0,spOspan.noVer,E7
638,63.0,S,15.0,1.0,bar,1,bar,3097.0,spOspan.noVer,E7
639,63.0,S,15.0,2.0,car,2,,3368.0,spOspan.noVer,E7
640,63.0,S,15.0,3.0,scar,3,,4348.0,spOspan.noVer,E7
641,63.0,S,15.0,4.0,star,4,star,4256.0,spOspan.noVer,E7
642,63.0,D,16.0,0.0,neck,0,neck,3688.0,spOspan.noVer,E7
643,63.0,D,16.0,1.0,town,1,town,3656.0,spOspan.noVer,E7
644,63.0,D,16.0,2.0,hat,2,hat,3624.0,spOspan.noVer,E7
645,63.0,D,16.0,3.0,street,3,street,3777.0,spOspan.noVer,E7
646,63.0,D,17.0,0.0,mare,0,mare,3841.0,spOspan.noVer,E7
647,63.0,D,17.0,1.0,bell,1,bell,3644.0,spOspan.noVer,E7
648,63.0,D,17.0,2.0,brain,2,brain,3515.0,spOspan.noVer,E7
649,63.0,D,17.0,3.0,beef,3,beef,4075.0,spOspan.noVer,E7
650,63.0,D,18.0,0.0,shell,0,shell,3329.0,spOspan.noVer,E7
651,63.0,D,18.0,1.0,tree,1,tree,3047.0,spOspan.noVer,E7
652,63.0,D,18.0,2.0,bowl,2,,3329.0,spOspan.noVer,E7
653,63.0,D,18.0,3.0,broom,3,,3672.0,spOspan.noVer,E7
654,63.0,D,18.0,4.0,test,4,test,3750.0,spOspan.noVer,E7
655,63.0,D,18.0,5.0,ground,5,ground,3427.0,spOspan.noVer,E7
656,63.0,D,19.0,0.0,deck,0,deck,3352.0,spOspan.noVer,E7
657,63.0,D,19.0,1.0,slice,1,slice,3061.0,spOspan.noVer,E7
658,63.0,D,19.0,2.0,rat,2,rat,3486.0,spOspan.noVer,E7
659,63.0,D,20.0,0.0,coin,0,coin,3673.0,spOspan.noVer,E7
660,63.0,D,20.0,1.0,film,1,tree,3347.0,spOspan.noVer,E7
661,63.0,D,20.0,2.0,leaf,2,,3248.0,spOspan.noVer,E7
662,63.0,D,20.0,3.0,train,3,train,3345.0,spOspan.noVer,E7
663,63.0,D,20.0,4.0,map,4,map,3844.0,spOspan.noVer,E7
664,63.0,D,20.0,5.0,art,5,art,3934.0,spOspan.noVer,E7
665,63.0,D,21.0,0.0,rice,0,rice,3784.0,spOspan.noVer,E7
666,63.0,D,21.0,1.0,cat,1,cat,2869.0,spOspan.noVer,E7
667,63.0,D,21.0,2.0,trash,2,trash,3285.0,spOspan.noVer,E7
668,63.0,D,22.0,0.0,path,0,path,3272.0,spOspan.noVer,E7
669,63.0,D,22.0,1.0,nest,1,nest,2785.0,spOspan.noVer,E7
670,63.0,D,22.0,2.0,square,2,square,3038.0,spOspan.noVer,E7
671,63.0,D,22.0,3.0,wood,3,wood,3246.0,spOspan.noVer,E7
672,63.0,D,22.0,4.0,beach,4,beach,3375.0,spOspan.noVer,E7
673,63.0,D,23.0,0.0,chest,0,chest,3370.0,spOspan.noVer,E7
674,63.0,D,23.0,1.0,lane,1,lane,3159.0,spOspan.noVer,E7
675,63.0,D,23.0,2.0,hair,2,hair,2940.0,spOspan.noVer,E7
676,63.0,D,23.0,3.0,crown,3,crown,3178.0,spOspan.noVer,E7
677,63.0,D,24.0,0.0,spice,0,spice,3270.0,spOspan.noVer,E7
678,63.0,D,24.0,1.0,heat,1,shape,3088.0,spOspan.noVer,E7
679,63.0,D,24.0,2.0,shape,2,heat,2975.0,spOspan.noVer,E7
680,63.0,D,24.0,3.0,pear,3,pear,2842.0,spOspan.noVer,E7
681,63.0,D,24.0,4.0,guest,4,guest,3427.0,spOspan.noVer,E7
682,63.0,D,25.0,0.0,ant,0,ant,3316.0,spOspan.noVer,E7
683,63.0,D,25.0,1.0,air,1,air,2908.0,spOspan.noVer,E7
684,63.0,D,25.0,2.0,ink,2,ink,3531.0,spOspan.noVer,E7
685,63.0,D,25.0,3.0,cloud,3,cloud,3264.0,spOspan.noVer,E7
686,63.0,D,25.0,4.0,seat,4,seat,4298.0,spOspan.noVer,E7
687,63.0,D,25.0,5.0,breath,5,breath,3199.0,spOspan.noVer,E7
688,63.0,D,26.0,0.0,beard,0,beard,3417.0,spOspan.noVer,E7
689,63.0,D,26.0,1.0,hill,1,hill,2949.0,spOspan.noVer,E7
690,63.0,D,26.0,2.0,dirt,2,heat,3170.0,spOspan.noVer,E7
691,63.0,D,26.0,3.0,card,3,card,2893.0,spOspan.noVer,E7
692,63.0,D,26.0,4.0,line,,,3814.0,spOspan.noVer,E7
693,63.0,D,27.0,0.0,toy,0,toy,3028.0,spOspan.noVer,E7
694,63.0,D,27.0,1.0,wreck,1,wreck,2830.0,spOspan.noVer,E7
695,63.0,D,27.0,2.0,frown,2,frown,3057.0,spOspan.noVer,E7
696,64.0,P,0.0,0.0,earth,0,earth,,spOspan.noVer,E7
697,64.0,P,0.0,1.0,peach,1,peach,,spOspan.noVer,E7
698,64.0,P,1.0,0.0,farm,0,four,,spOspan.noVer,E7
699,64.0,P,1.0,1.0,arm,1,arm,,spOspan.noVer,E7
700,64.0,P,2.0,0.0,hood,0,hood,,spOspan.noVer,E7
701,64.0,P,2.0,1.0,wood,1,wood,,spOspan.noVer,E7
702,64.0,P,3.0,0.0,bath,0,bath,,spOspan.noVer,E7
703,64.0,P,3.0,1.0,dawn,1,dawn,,spOspan.noVer,E7
704,64.0,D,4.0,0.0,beard,0,beard,2974.0,spOspan.noVer,E7
705,64.0,D,4.0,1.0,hill,1,hill,3709.0,spOspan.noVer,E7
706,64.0,D,4.0,2.0,dirt,2,,2979.0,spOspan.noVer,E7
707,64.0,D,4.0,3.0,card,3,card,3782.0,spOspan.noVer,E7
708,64.0,D,4.0,4.0,line,,,3954.0,spOspan.noVer,E7
709,64.0,D,5.0,0.0,mare,0,brain,3867.0,spOspan.noVer,E7
710,64.0,D,5.0,1.0,bell,1,,3058.0,spOspan.noVer,E7
711,64.0,D,5.0,2.0,brain,2,mare,3443.0,spOspan.noVer,E7
712,64.0,D,5.0,3.0,beef,3,beef,3189.0,spOspan.noVer,E7
713,64.0,D,6.0,0.0,chest,0,chest,3810.0,spOspan.noVer,E7
714,64.0,D,6.0,1.0,lane,1,lane,2780.0,spOspan.noVer,E7
715,64.0,D,6.0,2.0,hair,2,hair,3121.0,spOspan.noVer,E7
716,64.0,D,6.0,3.0,crown,3,,3343.0,spOspan.noVer,E7
717,64.0,D,7.0,0.0,deck,0,,2630.0,spOspan.noVer,E7
718,64.0,D,7.0,1.0,slice,1,slice,2762.0,spOspan.noVer,E7
719,64.0,D,7.0,2.0,rat,2,rat,2953.0,spOspan.noVer,E7
720,64.0,D,8.0,0.0,shell,0,shell,3439.0,spOspan.noVer,E7
721,64.0,D,8.0,1.0,tree,1,tree,2851.0,spOspan.noVer,E7
722,64.0,D,8.0,2.0,bowl,2,bowl,3315.0,spOspan.noVer,E7
723,64.0,D,8.0,3.0,broom,3,,3282.0,spOspan.noVer,E7
724,64.0,D,8.0,4.0,test,4,test,3170.0,spOspan.noVer,E7
725,64.0,D,8.0,5.0,ground,5,,3181.0,spOspan.noVer,E7
726,64.0,D,9.0,0.0,spice,0,spice,3380.0,spOspan.noVer,E7
727,64.0,D,9.0,1.0,heat,1,heart,2961.0,spOspan.noVer,E7
728,64.0,D,9.0,2.0,shape,2,shape,2814.0,spOspan.noVer,E7
729,64.0,D,9.0,3.0,pear,3,pear,3145.0,spOspan.noVer,E7
730,64.0,D,9.0,4.0,guest,4,,2781.0,spOspan.noVer,E7
731,64.0,D,10.0,0.0,neck,0,neck,2864.0,spOspan.noVer,E7
732,64.0,D,10.0,1.0,town,1,hat,3337.0,spOspan.noVer,E7
733,64.0,D,10.0,2.0,hat,2,town,2935.0,spOspan.noVer,E7
734,64.0,D,10.0,3.0,street,3,street,3555.0,spOspan.noVer,E7
735,64.0,D,11.0,0.0,ant,0,ant,3325.0,spOspan.noVer,E7
736,64.0,D,11.0,1.0,air,1,,3275.0,spOspan.noVer,E7
737,64.0,D,11.0,2.0,ink,2,,3172.0,spOspan.noVer,E7
738,64.0,D,11.0,3.0,cloud,3,,3144.0,spOspan.noVer,E7
739,64.0,D,11.0,4.0,seat,4,,3998.0,spOspan.noVer,E7
740,64.0,D,11.0,5.0,breath,,,3345.0,spOspan.noVer,E7
741,64.0,D,12.0,0.0,path,0,,2941.0,spOspan.noVer,E7
742,64.0,D,12.0,1.0,nest,1,twelve,2834.0,spOspan.noVer,E7
743,64.0,D,12.0,2.0,square,2,,2909.0,spOspan.noVer,E7
744,64.0,D,12.0,3.0,wood,3,wood,3972.0,spOspan.noVer,E7
745,64.0,D,12.0,4.0,beach,4,,2903.0,spOspan.noVer,E7
746,64.0,D,13.0,0.0,toy,0,toy,3083.0,spOspan.noVer,E7
747,64.0,D,13.0,1.0,wreck,1,wreak,3555.0,spOspan.noVer,E7
748,64.0,D,13.0,2.0,frown,2,frown,3273.0,spOspan.noVer,E7
749,64.0,D,14.0,0.0,coin,0,coin,2789.0,spOspan.noVer,E7
750,64.0,D,14.0,1.0,film,1,film,3289.0,spOspan.noVer,E7
751,64.0,D,14.0,2.0,leaf,2,leaf,3192.0,spOspan.noVer,E7
752,64.0,D,14.0,3.0,train,3,map,2788.0,spOspan.noVer,E7
753,64.0,D,14.0,4.0,map,4,art,3879.0,spOspan.noVer,E7
754,64.0,D,14.0,5.0,art,5,,3726.0,spOspan.noVer,E7
755,64.0,D,15.0,0.0,rice,0,rice,3055.0,spOspan.noVer,E7
756,64.0,D,15.0,1.0,cat,1,cat,3265.0,spOspan.noVer,E7
757,64.0,D,15.0,2.0,trash,2,trash,2770.0,spOspan.noVer,E7
758,64.0,S,16.0,0.0,pie,0,pie,2464.0,spOspan.noVer,E7
759,64.0,S,16.0,1.0,fly,1,fly,2763.0,spOspan.noVer,E7
760,64.0,S,16.0,2.0,tie,2,tie,3192.0,spOspan.noVer,E7
761,64.0,S,16.0,3.0,sky,3,sky,2627.0,spOspan.noVer,E7
762,64.0,S,16.0,4.0,eye,4,,3381.0,spOspan.noVer,E7
763,64.0,S,17.0,0.0,boot,0,boot,2790.0,spOspan.noVer,E7
764,64.0,S,17.0,1.0,suit,1,suit,2603.0,spOspan.noVer,E7
765,64.0,S,17.0,2.0,flute,2,flute,2758.0,spOspan.noVer,E7
766,64.0,S,17.0,3.0,loot,3,root,4116.0,spOspan.noVer,E7
767,64.0,S,17.0,4.0,root,4,brute,2904.0,spOspan.noVer,E7
768,64.0,S,17.0,5.0,brute,5,,2881.0,spOspan.noVer,E7
769,64.0,S,18.0,0.0,jar,0,bar,2907.0,spOspan.noVer,E7
770,64.0,S,18.0,1.0,bar,1,jar,3748.0,spOspan.noVer,E7
771,64.0,S,18.0,2.0,car,2,car,3040.0,spOspan.noVer,E7
772,64.0,S,18.0,3.0,scar,3,scar,3146.0,spOspan.noVer,E7
773,64.0,S,18.0,4.0,star,4,,2862.0,spOspan.noVer,E7
774,64.0,S,19.0,0.0,doll,0,doll,2636.0,spOspan.noVer,E7
775,64.0,S,19.0,1.0,ball,1,ball,2719.0,spOspan.noVer,E7
776,64.0,S,19.0,2.0,shawl,2,shawl,3742.0,spOspan.noVer,E7
777,64.0,S,19.0,3.0,hall,3,hall,3042.0,spOspan.noVer,E7
778,64.0,S,19.0,4.0,brawl,4,wall,3244.0,spOspan.noVer,E7
779,64.0,S,19.0,5.0,wall,5,,3371.0,spOspan.noVer,E7
780,64.0,S,20.0,0.0,band,0,land,2793.0,spOspan.noVer,E7
781,64.0,S,20.0,1.0,land,1,hand,2918.0,spOspan.noVer,E7
782,64.0,S,20.0,2.0,stand,2,stand,2429.0,spOspan.noVer,E7
783,64.0,S,20.0,3.0,hand,3,,4087.0,spOspan.noVer,E7
784,64.0,S,21.0,0.0,bread,0,bread,2665.0,spOspan.noVer,E7
785,64.0,S,21.0,1.0,head,1,head,2746.0,spOspan.noVer,E7
786,64.0,S,21.0,2.0,thread,2,thread,3313.0,spOspan.noVer,E7
787,64.0,S,21.0,3.0,bed,3,bed,3512.0,spOspan.noVer,E7
788,64.0,S,22.0,0.0,king,0,king,2736.0,spOspan.noVer,E7
789,64.0,S,22.0,1.0,ring,1,ring,2991.0,spOspan.noVer,E7
790,64.0,S,22.0,2.0,spring,2,spring,3522.0,spOspan.noVer,E7
791,64.0,S,22.0,3.0,string,3,string,3111.0,spOspan.noVer,E7
792,64.0,S,22.0,4.0,wing,4,wing,3199.0,spOspan.noVer,E7
793,64.0,S,23.0,0.0,blouse,0,blouse,3371.0,spOspan.noVer,E7
794,64.0,S,23.0,1.0,house,1,house,2857.0,spOspan.noVer,E7
795,64.0,S,23.0,2.0,mouse,2,mouse,2730.0,spOspan.noVer,E7
796,64.0,S,24.0,0.0,cream,0,cream,2564.0,spOspan.noVer,E7
797,64.0,S,24.0,1.0,team,1,team,3211.0,spOspan.noVer,E7
798,64.0,S,24.0,2.0,steam,2,steam,3077.0,spOspan.noVer,E7
799,64.0,S,25.0,0.0,deer,0,deer,3104.0,spOspan.noVer,E7
800,64.0,S,25.0,1.0,sphere,1,sphere,2945.0,spOspan.noVer,E7
801,64.0,S,25.0,2.0,ear,2,,3006.0,spOspan.noVer,E7
802,64.0,S,25.0,3.0,tear,3,,3377.0,spOspan.noVer,E7
803,64.0,S,26.0,0.0,mail,0,mail,3421.0,spOspan.noVer,E7
804,64.0,S,26.0,1.0,sail,1,sail,3272.0,spOspan.noVer,E7
805,64.0,S,26.0,2.0,trail,2,wail,3255.0,spOspan.noVer,E7
806,64.0,S,26.0,3.0,wail,3,tail,4193.0,spOspan.noVer,E7
807,64.0,S,26.0,4.0,tail,4,,3339.0,spOspan.noVer,E7
808,64.0,S,26.0,5.0,jail,,,3545.0,spOspan.noVer,E7
809,64.0,S,27.0,0.0,bone,0,bone,3270.0,spOspan.noVer,E7
810,64.0,S,27.0,1.0,phone,1,phone,4175.0,spOspan.noVer,E7
811,64.0,S,27.0,2.0,stone,2,stone,3810.0,spOspan.noVer,E7
812,69.0,P,0.0,0.0,bath,0,bath,,spOspan.noVer,E7
813,69.0,P,0.0,1.0,dawn,1,dawn,,spOspan.noVer,E7
814,69.0,P,1.0,0.0,hood,0,hood,,spOspan.noVer,E7
815,69.0,P,1.0,1.0,wood,1,wood,,spOspan.noVer,E7
816,69.0,P,2.0,0.0,farm,0,farm,,spOspan.noVer,E7
817,69.0,P,2.0,1.0,arm,1,arm,,spOspan.noVer,E7
818,69.0,P,3.0,0.0,earth,0,earth,,spOspan.noVer,E7
819,69.0,P,3.0,1.0,peach,1,peach,,spOspan.noVer,E7
820,69.0,D,4.0,0.0,rice,0,rice,3343.0,spOspan.noVer,E7
821,69.0,D,4.0,1.0,cat,1,cat,2974.0,spOspan.noVer,E7
822,69.0,D,4.0,2.0,trash,2,trash,3183.0,spOspan.noVer,E7
823,69.0,D,5.0,0.0,beard,0,beard,4033.0,spOspan.noVer,E7
824,69.0,D,5.0,1.0,hill,1,hill,2988.0,spOspan.noVer,E7
825,69.0,D,5.0,2.0,dirt,2,dirt,3462.0,spOspan.noVer,E7
826,69.0,D,5.0,3.0,card,3,,3399.0,spOspan.noVer,E7
827,69.0,D,5.0,4.0,line,4,,3779.0,spOspan.noVer,E7
828,69.0,D,6.0,0.0,spice,0,spice,3514.0,spOspan.noVer,E7
829,69.0,D,6.0,1.0,heat,1,heat,3828.0,spOspan.noVer,E7
830,69.0,D,6.0,2.0,shape,2,,3735.0,spOspan.noVer,E7
831,69.0,D,6.0,3.0,pear,3,pear,4911.0,spOspan.noVer,E7
832,69.0,D,6.0,4.0,guest,,,3817.0,spOspan.noVer,E7
833,69.0,D,7.0,0.0,neck,0,neck,3343.0,spOspan.noVer,E7
834,69.0,D,7.0,1.0,town,1,,2526.0,spOspan.noVer,E7
835,69.0,D,7.0,2.0,hat,2,town,3707.0,spOspan.noVer,E7
836,69.0,D,7.0,3.0,street,3,street,4519.0,spOspan.noVer,E7
837,69.0,D,8.0,0.0,path,0,path,3110.0,spOspan.noVer,E7
838,69.0,D,8.0,1.0,nest,1,nest,2762.0,spOspan.noVer,E7
839,69.0,D,8.0,2.0,square,2,,3558.0,spOspan.noVer,E7
840,69.0,D,8.0,3.0,wood,3,wood,4188.0,spOspan.noVer,E7
841,69.0,D,8.0,4.0,beach,4,beach,3382.0,spOspan.noVer,E7
842,69.0,D,9.0,0.0,ant,0,ant,3318.0,spOspan.noVer,E7
843,69.0,D,9.0,1.0,air,1,air,2828.0,spOspan.noVer,E7
844,69.0,D,9.0,2.0,ink,2,,2743.0,spOspan.noVer,E7
845,69.0,D,9.0,3.0,cloud,3,,2991.0,spOspan.noVer,E7
846,69.0,D,9.0,4.0,seat,4,breath,3450.0,spOspan.noVer,E7
847,69.0,D,9.0,5.0,breath,,,3414.0,spOspan.noVer,E7
848,69.0,D,10.0,0.0,mare,0,,3031.0,spOspan.noVer,E7
849,69.0,D,10.0,1.0,bell,1,,2674.0,spOspan.noVer,E7
850,69.0,D,10.0,2.0,brain,2,brain,2885.0,spOspan.noVer,E7
851,69.0,D,10.0,3.0,beef,3,beef,4554.0,spOspan.noVer,E7
852,69.0,D,11.0,0.0,toy,0,toy,3285.0,spOspan.noVer,E7
853,69.0,D,11.0,1.0,wreck,1,wreck,2801.0,spOspan.noVer,E7
854,69.0,D,11.0,2.0,frown,2,frown,3575.0,spOspan.noVer,E7
855,69.0,D,12.0,0.0,chest,0,chest,4238.0,spOspan.noVer,E7
856,69.0,D,12.0,1.0,lane,1,lane,3165.0,spOspan.noVer,E7
857,69.0,D,12.0,2.0,hair,2,hair,3401.0,spOspan.noVer,E7
858,69.0,D,12.0,3.0,crown,3,crown,3343.0,spOspan.noVer,E7
859,69.0,D,13.0,0.0,deck,0,deck,2714.0,spOspan.noVer,E7
860,69.0,D,13.0,1.0,slice,1,slice,3228.0,spOspan.noVer,E7
861,69.0,D,13.0,2.0,rat,2,rat,2928.0,spOspan.noVer,E7
862,69.0,D,14.0,0.0,coin,0,,2964.0,spOspan.noVer,E7
863,69.0,D,14.0,1.0,film,1,,2786.0,spOspan.noVer,E7
864,69.0,D,14.0,2.0,leaf,2,,3100.0,spOspan.noVer,E7
865,69.0,D,14.0,3.0,train,3,coin,3245.0,spOspan.noVer,E7
866,69.0,D,14.0,4.0,map,4,map,3170.0,spOspan.noVer,E7
867,69.0,D,14.0,5.0,art,5,art,3607.0,spOspan.noVer,E7
868,69.0,D,15.0,0.0,shell,0,,3743.0,spOspan.noVer,E7
869,69.0,D,15.0,1.0,tree,1,,3352.0,spOspan.noVer,E7
870,69.0,D,15.0,2.0,bowl,2,,4258.0,spOspan.noVer,E7
871,69.0,D,15.0,3.0,broom,3,,3682.0,spOspan.noVer,E7
872,69.0,D,15.0,4.0,test,4,ground,4424.0,spOspan.noVer,E7
873,69.0,D,15.0,5.0,ground,,,4823.0,spOspan.noVer,E7
874,69.0,S,16.0,0.0,cream,0,cream,2941.0,spOspan.noVer,E7
875,69.0,S,16.0,1.0,team,1,team,3444.0,spOspan.noVer,E7
876,69.0,S,16.0,2.0,steam,2,steam,3002.0,spOspan.noVer,E7
877,69.0,S,17.0,0.0,doll,0,hall,3098.0,spOspan.noVer,E7
878,69.0,S,17.0,1.0,ball,1,shawl,3363.0,spOspan.noVer,E7
879,69.0,S,17.0,2.0,shawl,2,,4791.0,spOspan.noVer,E7
880,69.0,S,17.0,3.0,hall,3,brawl,5123.0,spOspan.noVer,E7
881,69.0,S,17.0,4.0,brawl,,,2784.0,spOspan.noVer,E7
882,69.0,S,17.0,5.0,wall,,,3151.0,spOspan.noVer,E7
883,69.0,S,18.0,0.0,mail,0,,2684.0,spOspan.noVer,E7
884,69.0,S,18.0,1.0,sail,1,,2851.0,spOspan.noVer,E7
885,69.0,S,18.0,2.0,trail,2,wail,2632.0,spOspan.noVer,E7
886,69.0,S,18.0,3.0,wail,3,trail,4058.0,spOspan.noVer,E7
887,69.0,S,18.0,4.0,tail,4,jail,3482.0,spOspan.noVer,E7
888,69.0,S,18.0,5.0,jail,,,3415.0,spOspan.noVer,E7
889,69.0,S,19.0,0.0,bone,0,bone,2424.0,spOspan.noVer,E7
890,69.0,S,19.0,1.0,phone,1,phone,2983.0,spOspan.noVer,E7
891,69.0,S,19.0,2.0,stone,2,stone,3199.0,spOspan.noVer,E7
892,69.0,S,20.0,0.0,deer,0,dear,2942.0,spOspan.noVer,E7
893,69.0,S,20.0,1.0,sphere,1,,2686.0,spOspan.noVer,E7
894,69.0,S,20.0,2.0,ear,2,sphere,3187.0,spOspan.noVer,E7
895,69.0,S,20.0,3.0,tear,3,ear,3829.0,spOspan.noVer,E7
896,69.0,S,21.0,0.0,pie,0,,2998.0,spOspan.noVer,E7
897,69.0,S,21.0,1.0,fly,1,,3432.0,spOspan.noVer,E7
898,69.0,S,21.0,2.0,tie,2,fly,2627.0,spOspan.noVer,E7
899,69.0,S,21.0,3.0,sky,3,sky,4965.0,spOspan.noVer,E7
900,69.0,S,21.0,4.0,eye,4,eye,4275.0,spOspan.noVer,E7
901,69.0,S,22.0,0.0,boot,0,boot,3376.0,spOspan.noVer,E7
902,69.0,S,22.0,1.0,suit,1,,2944.0,spOspan.noVer,E7
903,69.0,S,22.0,2.0,flute,2,,3688.0,spOspan.noVer,E7
904,69.0,S,22.0,3.0,loot,3,route,3573.0,spOspan.noVer,E7
905,69.0,S,22.0,4.0,root,4,broot,2741.0,spOspan.noVer,E7
906,69.0,S,22.0,5.0,brute,,,3854.0,spOspan.noVer,E7
907,69.0,S,23.0,0.0,bread,0,head,3285.0,spOspan.noVer,E7
908,69.0,S,23.0,1.0,head,1,thread,3523.0,spOspan.noVer,E7
909,69.0,S,23.0,2.0,thread,2,,2704.0,spOspan.noVer,E7
910,69.0,S,23.0,3.0,bed,3,bed,2945.0,spOspan.noVer,E7
911,69.0,S,24.0,0.0,band,0,band,3275.0,spOspan.noVer,E7
912,69.0,S,24.0,1.0,land,1,,2958.0,spOspan.noVer,E7
913,69.0,S,24.0,2.0,stand,2,,3232.0,spOspan.noVer,E7
914,69.0,S,24.0,3.0,hand,3,hand,4659.0,spOspan.noVer,E7
915,69.0,S,25.0,0.0,jar,0,jar,2681.0,spOspan.noVer,E7
916,69.0,S,25.0,1.0,bar,1,bar,3293.0,spOspan.noVer,E7
917,69.0,S,25.0,2.0,car,2,car,3413.0,spOspan.noVer,E7
918,69.0,S,25.0,3.0,scar,3,,4877.0,spOspan.noVer,E7
919,69.0,S,25.0,4.0,star,4,star,4152.0,spOspan.noVer,E7
920,69.0,S,26.0,0.0,king,0,king,3169.0,spOspan.noVer,E7
921,69.0,S,26.0,1.0,ring,1,,2493.0,spOspan.noVer,E7
922,69.0,S,26.0,2.0,spring,2,string,2701.0,spOspan.noVer,E7
923,69.0,S,26.0,3.0,string,3,wing,3693.0,spOspan.noVer,E7
924,69.0,S,26.0,4.0,wing,,,2894.0,spOspan.noVer,E7
925,69.0,S,27.0,0.0,blouse,0,blouse,2998.0,spOspan.noVer,E7
926,69.0,S,27.0,1.0,house,1,house,2689.0,spOspan.noVer,E7
927,69.0,S,27.0,2.0,mouse,2,mouse,3149.0,spOspan.noVer,E7
928,71.0,P,0.0,0.0,bath,0,bath,,spOspan.noVer,E7
929,71.0,P,0.0,1.0,dawn,1,dawn,,spOspan.noVer,E7
930,71.0,P,1.0,0.0,earth,0,earth,,spOspan.noVer,E7
931,71.0,P,1.0,1.0,peach,1,peach,,spOspan.noVer,E7
932,71.0,P,2.0,0.0,hood,0,hood,,spOspan.noVer,E7
933,71.0,P,2.0,1.0,wood,1,wood,,spOspan.noVer,E7
934,71.0,P,3.0,0.0,farm,0,farm,,spOspan.noVer,E7
935,71.0,P,3.0,1.0,arm,1,arm,,spOspan.noVer,E7
936,71.0,S,4.0,0.0,bone,0,bone,3312.0,spOspan.noVer,E7
937,71.0,S,4.0,1.0,phone,1,phone,3079.0,spOspan.noVer,E7
938,71.0,S,4.0,2.0,stone,2,stone,3638.0,spOspan.noVer,E7
939,71.0,S,5.0,0.0,band,0,band,3255.0,spOspan.noVer,E7
940,71.0,S,5.0,1.0,land,1,stand,3144.0,spOspan.noVer,E7
941,71.0,S,5.0,2.0,stand,2,land,3086.0,spOspan.noVer,E7
942,71.0,S,5.0,3.0,hand,3,hand,3534.0,spOspan.noVer,E7
943,71.0,S,6.0,0.0,boot,0,boot,3616.0,spOspan.noVer,E7
944,71.0,S,6.0,1.0,suit,1,suit,3381.0,spOspan.noVer,E7
945,71.0,S,6.0,2.0,flute,2,flute,3023.0,spOspan.noVer,E7
946,71.0,S,6.0,3.0,loot,3,loot,3857.0,spOspan.noVer,E7
947,71.0,S,6.0,4.0,root,4,brute,3249.0,spOspan.noVer,E7
948,71.0,S,6.0,5.0,brute,,,3283.0,spOspan.noVer,E7
949,71.0,S,7.0,0.0,mail,0,mail,3596.0,spOspan.noVer,E7
950,71.0,S,7.0,1.0,sail,1,,3303.0,spOspan.noVer,E7
951,71.0,S,7.0,2.0,trail,2,trail,3367.0,spOspan.noVer,E7
952,71.0,S,7.0,3.0,wail,,,3317.0,spOspan.noVer,E7
953,71.0,S,7.0,4.0,tail,,,3083.0,spOspan.noVer,E7
954,71.0,S,7.0,5.0,jail,,,3308.0,spOspan.noVer,E7
955,71.0,S,8.0,0.0,cream,0,cream,3307.0,spOspan.noVer,E7
956,71.0,S,8.0,1.0,team,1,team,3066.0,spOspan.noVer,E7
957,71.0,S,8.0,2.0,steam,2,steam,3067.0,spOspan.noVer,E7
958,71.0,S,9.0,0.0,bread,0,bread,4252.0,spOspan.noVer,E7
959,71.0,S,9.0,1.0,head,1,head,2876.0,spOspan.noVer,E7
960,71.0,S,9.0,2.0,thread,2,thread,3099.0,spOspan.noVer,E7
961,71.0,S,9.0,3.0,bed,3,bed,3245.0,spOspan.noVer,E7
962,71.0,S,10.0,0.0,doll,0,doll,3323.0,spOspan.noVer,E7
963,71.0,S,10.0,1.0,ball,1,hall,3169.0,spOspan.noVer,E7
964,71.0,S,10.0,2.0,shawl,2,shawl,3526.0,spOspan.noVer,E7
965,71.0,S,10.0,3.0,hall,3,,3444.0,spOspan.noVer,E7
966,71.0,S,10.0,4.0,brawl,4,brawl,2925.0,spOspan.noVer,E7
967,71.0,S,10.0,5.0,wall,5,wall,3306.0,spOspan.noVer,E7
968,71.0,S,11.0,0.0,deer,0,dear,3378.0,spOspan.noVer,E7
969,71.0,S,11.0,1.0,sphere,1,sphere,3119.0,spOspan.noVer,E7
970,71.0,S,11.0,2.0,ear,2,ear,3583.0,spOspan.noVer,E7
971,71.0,S,11.0,3.0,tear,3,tear,3002.0,spOspan.noVer,E7
972,71.0,S,12.0,0.0,pie,0,pie,2850.0,spOspan.noVer,E7
973,71.0,S,12.0,1.0,fly,1,fly,2972.0,spOspan.noVer,E7
974,71.0,S,12.0,2.0,tie,2,tie,3145.0,spOspan.noVer,E7
975,71.0,S,12.0,3.0,sky,3,sky,3486.0,spOspan.noVer,E7
976,71.0,S,12.0,4.0,eye,,,3949.0,spOspan.noVer,E7
977,71.0,S,13.0,0.0,jar,0,jar,3592.0,spOspan.noVer,E7
978,71.0,S,13.0,1.0,bar,1,bar,3372.0,spOspan.noVer,E7
979,71.0,S,13.0,2.0,car,2,scar,3264.0,spOspan.noVer,E7
980,71.0,S,13.0,3.0,scar,3,star,3177.0,spOspan.noVer,E7
981,71.0,S,13.0,4.0,star,,,3863.0,spOspan.noVer,E7
982,71.0,S,14.0,0.0,blouse,0,blouse,2919.0,spOspan.noVer,E7
983,71.0,S,14.0,1.0,house,1,house,3158.0,spOspan.noVer,E7
984,71.0,S,14.0,2.0,mouse,2,mouse,3090.0,spOspan.noVer,E7
985,71.0,S,15.0,0.0,king,0,king,2760.0,spOspan.noVer,E7
986,71.0,S,15.0,1.0,ring,1,ring,3197.0,spOspan.noVer,E7
987,71.0,S,15.0,2.0,spring,2,spring,3249.0,spOspan.noVer,E7
988,71.0,S,15.0,3.0,string,3,string,3402.0,spOspan.noVer,E7
989,71.0,S,15.0,4.0,wing,4,ring,3245.0,spOspan.noVer,E7
990,71.0,D,16.0,0.0,shell,0,shell,3767.0,spOspan.noVer,E7
991,71.0,D,16.0,1.0,tree,1,tree,2835.0,spOspan.noVer,E7
992,71.0,D,16.0,2.0,bowl,2,,3309.0,spOspan.noVer,E7
993,71.0,D,16.0,3.0,broom,3,test,3365.0,spOspan.noVer,E7
994,71.0,D,16.0,4.0,test,4,bowl,3369.0,spOspan.noVer,E7
995,71.0,D,16.0,5.0,ground,5,ground,3021.0,spOspan.noVer,E7
996,71.0,D,17.0,0.0,ant,0,ant,3350.0,spOspan.noVer,E7
997,71.0,D,17.0,1.0,air,1,air,3179.0,spOspan.noVer,E7
998,71.0,D,17.0,2.0,ink,2,ink,3224.0,spOspan.noVer,E7
999,71.0,D,17.0,3.0,cloud,3,cloud,3571.0,spOspan.noVer,E7
1000,71.0,D,17.0,4.0,seat,4,breathe,3470.0,spOspan.noVer,E7
1001,71.0,D,17.0,5.0,breath,,,3341.0,spOspan.noVer,E7
1002,71.0,D,18.0,0.0,toy,0,toy,3360.0,spOspan.noVer,E7
1003,71.0,D,18.0,1.0,wreck,1,wreck,2924.0,spOspan.noVer,E7
1004,71.0,D,18.0,2.0,frown,2,frown,3123.0,spOspan.noVer,E7
1005,71.0,D,19.0,0.0,deck,0,deck,3165.0,spOspan.noVer,E7
1006,71.0,D,19.0,1.0,slice,1,slice,2955.0,spOspan.noVer,E7
1007,71.0,D,19.0,2.0,rat,2,rat,2721.0,spOspan.noVer,E7
1008,71.0,D,20.0,0.0,mare,0,mare,3344.0,spOspan.noVer,E7
1009,71.0,D,20.0,1.0,bell,1,bell,3453.0,spOspan.noVer,E7
1010,71.0,D,20.0,2.0,brain,2,brain,3142.0,spOspan.noVer,E7
1011,71.0,D,20.0,3.0,beef,3,beef,3517.0,spOspan.noVer,E7
1012,71.0,D,21.0,0.0,path,0,path,3184.0,spOspan.noVer,E7
1013,71.0,D,21.0,1.0,nest,1,nest,2796.0,spOspan.noVer,E7
1014,71.0,D,21.0,2.0,square,2,square,2912.0,spOspan.noVer,E7
1015,71.0,D,21.0,3.0,wood,3,beach,2944.0,spOspan.noVer,E7
1016,71.0,D,21.0,4.0,beach,4,,2997.0,spOspan.noVer,E7
1017,71.0,D,22.0,0.0,spice,0,spice,3032.0,spOspan.noVer,E7
1018,71.0,D,22.0,1.0,heat,1,shape,3131.0,spOspan.noVer,E7
1019,71.0,D,22.0,2.0,shape,2,heat,3056.0,spOspan.noVer,E7
1020,71.0,D,22.0,3.0,pear,3,,2706.0,spOspan.noVer,E7
1021,71.0,D,22.0,4.0,guest,4,pear,3560.0,spOspan.noVer,E7
1022,71.0,D,23.0,0.0,coin,0,coin,2869.0,spOspan.noVer,E7
1023,71.0,D,23.0,1.0,film,1,,2999.0,spOspan.noVer,E7
1024,71.0,D,23.0,2.0,leaf,2,leaf,2866.0,spOspan.noVer,E7
1025,71.0,D,23.0,3.0,train,3,map,2907.0,spOspan.noVer,E7
1026,71.0,D,23.0,4.0,map,4,train,3506.0,spOspan.noVer,E7
1027,71.0,D,23.0,5.0,art,5,art,3248.0,spOspan.noVer,E7
1028,71.0,D,24.0,0.0,beard,0,beard,3282.0,spOspan.noVer,E7
1029,71.0,D,24.0,1.0,hill,1,hill,3058.0,spOspan.noVer,E7
1030,71.0,D,24.0,2.0,dirt,2,card,3068.0,spOspan.noVer,E7
1031,71.0,D,24.0,3.0,card,3,line,2996.0,spOspan.noVer,E7
1032,71.0,D,24.0,4.0,line,,,3623.0,spOspan.noVer,E7
1033,71.0,D,25.0,0.0,rice,0,,3144.0,spOspan.noVer,E7
1034,71.0,D,25.0,1.0,cat,1,cat,2798.0,spOspan.noVer,E7
1035,71.0,D,25.0,2.0,trash,2,trash,3091.0,spOspan.noVer,E7
1036,71.0,D,26.0,0.0,chest,0,chest,3068.0,spOspan.noVer,E7
1037,71.0,D,26.0,1.0,lane,1,lane,2973.0,spOspan.noVer,E7
1038,71.0,D,26.0,2.0,hair,2,hair,2825.0,spOspan.noVer,E7
1039,71.0,D,26.0,3.0,crown,3,crown,3394.0,spOspan.noVer,E7
1040,71.0,D,27.0,0.0,neck,0,neck,3043.0,spOspan.noVer,E7
1041,71.0,D,27.0,1.0,town,1,town,2877.0,spOspan.noVer,E7
1042,71.0,D,27.0,2.0,hat,2,hat,3118.0,spOspan.noVer,E7
1043,71.0,D,27.0,3.0,street,3,street,3260.0,spOspan.noVer,E7
1044,85.0,P,0.0,0.0,earth,0,earth,,spOspan.noVer,E7
1045,85.0,P,0.0,1.0,peach,1,peach,,spOspan.noVer,E7
1046,85.0,P,1.0,0.0,hood,0,hood,,spOspan.noVer,E7
1047,85.0,P,1.0,1.0,wood,1,wood,,spOspan.noVer,E7
1048,85.0,P,2.0,0.0,bath,0,bath,,spOspan.noVer,E7
1049,85.0,P,2.0,1.0,dawn,1,dawn,,spOspan.noVer,E7
1050,85.0,P,3.0,0.0,farm,0,farm,,spOspan.noVer,E7
1051,85.0,P,3.0,1.0,arm,1,arm,,spOspan.noVer,E7
1052,85.0,S,4.0,0.0,blouse,0,house,3787.0,spOspan.noVer,E7
1053,85.0,S,4.0,1.0,house,1,blouse,3727.0,spOspan.noVer,E7
1054,85.0,S,4.0,2.0,mouse,2,mouse,3589.0,spOspan.noVer,E7
1055,85.0,S,5.0,0.0,king,0,king,3688.0,spOspan.noVer,E7
1056,85.0,S,5.0,1.0,ring,1,,3520.0,spOspan.noVer,E7
1057,85.0,S,5.0,2.0,spring,2,ring,3542.0,spOspan.noVer,E7
1058,85.0,S,5.0,3.0,string,3,spring,3595.0,spOspan.noVer,E7
1059,85.0,S,5.0,4.0,wing,4,,4134.0,spOspan.noVer,E7
1060,85.0,S,6.0,0.0,band,0,band,3580.0,spOspan.noVer,E7
1061,85.0,S,6.0,1.0,land,1,land,3312.0,spOspan.noVer,E7
1062,85.0,S,6.0,2.0,stand,2,stand,3208.0,spOspan.noVer,E7
1063,85.0,S,6.0,3.0,hand,3,hand,3298.0,spOspan.noVer,E7
1064,85.0,S,7.0,0.0,mail,0,mail,3206.0,spOspan.noVer,E7
1065,85.0,S,7.0,1.0,sail,1,sail,3343.0,spOspan.noVer,E7
1066,85.0,S,7.0,2.0,trail,2,wail,4159.0,spOspan.noVer,E7
1067,85.0,S,7.0,3.0,wail,3,jail,3530.0,spOspan.noVer,E7
1068,85.0,S,7.0,4.0,tail,4,,3824.0,spOspan.noVer,E7
1069,85.0,S,7.0,5.0,jail,,,4072.0,spOspan.noVer,E7
1070,85.0,S,8.0,0.0,cream,0,cream,3854.0,spOspan.noVer,E7
1071,85.0,S,8.0,1.0,team,1,team,3838.0,spOspan.noVer,E7
1072,85.0,S,8.0,2.0,steam,2,steam,4559.0,spOspan.noVer,E7
1073,85.0,S,9.0,0.0,jar,0,jar,4169.0,spOspan.noVer,E7
1074,85.0,S,9.0,1.0,bar,1,bar,4164.0,spOspan.noVer,E7
1075,85.0,S,9.0,2.0,car,2,car,3936.0,spOspan.noVer,E7
1076,85.0,S,9.0,3.0,scar,3,star,3517.0,spOspan.noVer,E7
1077,85.0,S,9.0,4.0,star,,,3386.0,spOspan.noVer,E7
1078,85.0,S,10.0,0.0,bread,0,bread,5514.0,spOspan.noVer,E7
1079,85.0,S,10.0,1.0,head,1,head,3622.0,spOspan.noVer,E7
1080,85.0,S,10.0,2.0,thread,2,thread,3704.0,spOspan.noVer,E7
1081,85.0,S,10.0,3.0,bed,3,bed,3808.0,spOspan.noVer,E7
1082,85.0,S,11.0,0.0,pie,0,pie,3624.0,spOspan.noVer,E7
1083,85.0,S,11.0,1.0,fly,1,fly,3619.0,spOspan.noVer,E7
1084,85.0,S,11.0,2.0,tie,2,tie,3317.0,spOspan.noVer,E7
1085,85.0,S,11.0,3.0,sky,3,sky,3356.0,spOspan.noVer,E7
1086,85.0,S,11.0,4.0,eye,4,eye,3760.0,spOspan.noVer,E7
1087,85.0,S,12.0,0.0,bone,0,bone,3551.0,spOspan.noVer,E7
1088,85.0,S,12.0,1.0,phone,1,phone,3116.0,spOspan.noVer,E7
1089,85.0,S,12.0,2.0,stone,2,stone,3195.0,spOspan.noVer,E7
1090,85.0,S,13.0,0.0,doll,0,ball,3710.0,spOspan.noVer,E7
1091,85.0,S,13.0,1.0,ball,1,doll,3645.0,spOspan.noVer,E7
1092,85.0,S,13.0,2.0,shawl,2,shawl,5005.0,spOspan.noVer,E7
1093,85.0,S,13.0,3.0,hall,3,hall,3734.0,spOspan.noVer,E7
1094,85.0,S,13.0,4.0,brawl,4,wall,3101.0,spOspan.noVer,E7
1095,85.0,S,13.0,5.0,wall,,,4235.0,spOspan.noVer,E7
1096,85.0,S,14.0,0.0,boot,0,boot,3382.0,spOspan.noVer,E7
1097,85.0,S,14.0,1.0,suit,1,suit,3402.0,spOspan.noVer,E7
1098,85.0,S,14.0,2.0,flute,2,flute,3885.0,spOspan.noVer,E7
1099,85.0,S,14.0,3.0,loot,3,lute,4124.0,spOspan.noVer,E7
1100,85.0,S,14.0,4.0,root,4,root,3657.0,spOspan.noVer,E7
1101,85.0,S,14.0,5.0,brute,5,brute,3785.0,spOspan.noVer,E7
1102,85.0,S,15.0,0.0,deer,0,dear,4200.0,spOspan.noVer,E7
1103,85.0,S,15.0,1.0,sphere,1,sphere,3867.0,spOspan.noVer,E7
1104,85.0,S,15.0,2.0,ear,2,ear,4283.0,spOspan.noVer,E7
1105,85.0,S,15.0,3.0,tear,3,tear,3410.0,spOspan.noVer,E7
1106,85.0,D,16.0,0.0,deck,0,deck,3840.0,spOspan.noVer,E7
1107,85.0,D,16.0,1.0,slice,1,slice,4442.0,spOspan.noVer,E7
1108,85.0,D,16.0,2.0,rat,2,rat,3697.0,spOspan.noVer,E7
1109,85.0,D,17.0,0.0,chest,0,chest,3711.0,spOspan.noVer,E7
1110,85.0,D,17.0,1.0,lane,1,lane,3717.0,spOspan.noVer,E7
1111,85.0,D,17.0,2.0,hair,2,hair,3779.0,spOspan.noVer,E7
1112,85.0,D,17.0,3.0,crown,3,crown,3399.0,spOspan.noVer,E7
1113,85.0,D,18.0,0.0,path,0,path,3739.0,spOspan.noVer,E7
1114,85.0,D,18.0,1.0,nest,1,nest,3648.0,spOspan.noVer,E7
1115,85.0,D,18.0,2.0,square,2,square,3129.0,spOspan.noVer,E7
1116,85.0,D,18.0,3.0,wood,3,wood,2831.0,spOspan.noVer,E7
1117,85.0,D,18.0,4.0,beach,4,beach,4601.0,spOspan.noVer,E7
1118,85.0,D,19.0,0.0,neck,0,neck,3378.0,spOspan.noVer,E7
1119,85.0,D,19.0,1.0,town,1,town,4477.0,spOspan.noVer,E7
1120,85.0,D,19.0,2.0,hat,2,hat,3765.0,spOspan.noVer,E7
1121,85.0,D,19.0,3.0,street,3,street,3465.0,spOspan.noVer,E7
1122,85.0,D,20.0,0.0,beard,0,bear,3603.0,spOspan.noVer,E7
1123,85.0,D,20.0,1.0,hill,1,hill,3391.0,spOspan.noVer,E7
1124,85.0,D,20.0,2.0,dirt,2,dirt,3874.0,spOspan.noVer,E7
1125,85.0,D,20.0,3.0,card,3,card,3296.0,spOspan.noVer,E7
1126,85.0,D,20.0,4.0,line,4,,3784.0,spOspan.noVer,E7
1127,85.0,D,21.0,0.0,ant,0,ant,3447.0,spOspan.noVer,E7
1128,85.0,D,21.0,1.0,air,1,air,3457.0,spOspan.noVer,E7
1129,85.0,D,21.0,2.0,ink,2,ink,3507.0,spOspan.noVer,E7
1130,85.0,D,21.0,3.0,cloud,3,,3841.0,spOspan.noVer,E7
1131,85.0,D,21.0,4.0,seat,4,seat,4200.0,spOspan.noVer,E7
1132,85.0,D,21.0,5.0,breath,5,breath,3563.0,spOspan.noVer,E7
1133,85.0,D,22.0,0.0,spice,0,space,4824.0,spOspan.noVer,E7
1134,85.0,D,22.0,1.0,heat,1,heat,4473.0,spOspan.noVer,E7
1135,85.0,D,22.0,2.0,shape,2,,3080.0,spOspan.noVer,E7
1136,85.0,D,22.0,3.0,pear,3,pear,3050.0,spOspan.noVer,E7
1137,85.0,D,22.0,4.0,guest,,,3570.0,spOspan.noVer,E7
1138,85.0,D,23.0,0.0,shell,0,shell,3792.0,spOspan.noVer,E7
1139,85.0,D,23.0,1.0,tree,1,tree,3867.0,spOspan.noVer,E7
1140,85.0,D,23.0,2.0,bowl,2,,3414.0,spOspan.noVer,E7
1141,85.0,D,23.0,3.0,broom,3,broom,3030.0,spOspan.noVer,E7
1142,85.0,D,23.0,4.0,test,4,ground,3410.0,spOspan.noVer,E7
1143,85.0,D,23.0,5.0,ground,,,3589.0,spOspan.noVer,E7
1144,85.0,D,24.0,0.0,coin,0,train,3505.0,spOspan.noVer,E7
1145,85.0,D,24.0,1.0,film,1,leaf,4000.0,spOspan.noVer,E7
1146,85.0,D,24.0,2.0,leaf,2,art,4067.0,spOspan.noVer,E7
1147,85.0,D,24.0,3.0,train,,,3115.0,spOspan.noVer,E7
1148,85.0,D,24.0,4.0,map,,,4562.0,spOspan.noVer,E7
1149,85.0,D,24.0,5.0,art,,,3724.0,spOspan.noVer,E7
1150,85.0,D,25.0,0.0,rice,0,rice,3352.0,spOspan.noVer,E7
1151,85.0,D,25.0,1.0,cat,1,cat,3118.0,spOspan.noVer,E7
1152,85.0,D,25.0,2.0,trash,2,trash,3029.0,spOspan.noVer,E7
1153,85.0,D,26.0,0.0,toy,0,toy,3785.0,spOspan.noVer,E7
1154,85.0,D,26.0,1.0,wreck,1,wreck,3437.0,spOspan.noVer,E7
1155,85.0,D,26.0,2.0,frown,2,frown,3647.0,spOspan.noVer,E7
1156,85.0,D,27.0,0.0,mare,0,mare,3714.0,spOspan.noVer,E7
1157,85.0,D,27.0,1.0,bell,1,bell,3577.0,spOspan.noVer,E7
1158,85.0,D,27.0,2.0,brain,2,brain,3853.0,spOspan.noVer,E7
1159,85.0,D,27.0,3.0,beef,3,beef,4558.0,spOspan.noVer,E7
1160,87.0,P,0.0,0.0,farm,0,farm,,spOspan.noVer,E7
1161,87.0,P,0.0,1.0,arm,1,arm,,spOspan.noVer,E7
1162,87.0,P,1.0,0.0,earth,0,earth,,spOspan.noVer,E7
1163,87.0,P,1.0,1.0,peach,1,peach,,spOspan.noVer,E7
1164,87.0,P,2.0,0.0,bath,0,earth,,spOspan.noVer,E7
1165,87.0,P,2.0,1.0,dawn,1,dawn,,spOspan.noVer,E7
1166,87.0,P,3.0,0.0,hood,0,hood,,spOspan.noVer,E7
1167,87.0,P,3.0,1.0,wood,1,wood,,spOspan.noVer,E7
1168,87.0,D,4.0,0.0,spice,0,spice,2877.0,spOspan.noVer,E7
1169,87.0,D,4.0,1.0,heat,1,heat,3088.0,spOspan.noVer,E7
1170,87.0,D,4.0,2.0,shape,2,shape,3734.0,spOspan.noVer,E7
1171,87.0,D,4.0,3.0,pear,3,guest,3604.0,spOspan.noVer,E7
1172,87.0,D,4.0,4.0,guest,,,3687.0,spOspan.noVer,E7
1173,87.0,D,5.0,0.0,neck,0,neck,2886.0,spOspan.noVer,E7
1174,87.0,D,5.0,1.0,town,1,town,3125.0,spOspan.noVer,E7
1175,87.0,D,5.0,2.0,hat,2,hat,2797.0,spOspan.noVer,E7
1176,87.0,D,5.0,3.0,street,3,street,4288.0,spOspan.noVer,E7
1177,87.0,D,6.0,0.0,deck,0,deck,3560.0,spOspan.noVer,E7
1178,87.0,D,6.0,1.0,slice,1,slice,5646.0,spOspan.noVer,E7
1179,87.0,D,6.0,2.0,rat,2,rat,3637.0,spOspan.noVer,E7
1180,87.0,D,7.0,0.0,toy,0,toy,3794.0,spOspan.noVer,E7
1181,87.0,D,7.0,1.0,wreck,1,wreck,5077.0,spOspan.noVer,E7
1182,87.0,D,7.0,2.0,frown,2,frown,4194.0,spOspan.noVer,E7
1183,87.0,D,8.0,0.0,shell,0,shell,3627.0,spOspan.noVer,E7
1184,87.0,D,8.0,1.0,tree,1,tree,3630.0,spOspan.noVer,E7
1185,87.0,D,8.0,2.0,bowl,2,bowl,4504.0,spOspan.noVer,E7
1186,87.0,D,8.0,3.0,broom,3,ground,3773.0,spOspan.noVer,E7
1187,87.0,D,8.0,4.0,test,,,3313.0,spOspan.noVer,E7
1188,87.0,D,8.0,5.0,ground,,,3215.0,spOspan.noVer,E7
1189,87.0,D,9.0,0.0,coin,0,coin,3015.0,spOspan.noVer,E7
1190,87.0,D,9.0,1.0,film,1,film,3450.0,spOspan.noVer,E7
1191,87.0,D,9.0,2.0,leaf,2,leaf,3764.0,spOspan.noVer,E7
1192,87.0,D,9.0,3.0,train,3,train,4688.0,spOspan.noVer,E7
1193,87.0,D,9.0,4.0,map,4,map,5341.0,spOspan.noVer,E7
1194,87.0,D,9.0,5.0,art,5,art,4080.0,spOspan.noVer,E7
1195,87.0,D,10.0,0.0,rice,0,rice,2764.0,spOspan.noVer,E7
1196,87.0,D,10.0,1.0,cat,1,cat,4481.0,spOspan.noVer,E7
1197,87.0,D,10.0,2.0,trash,2,trash,3745.0,spOspan.noVer,E7
1198,87.0,D,11.0,0.0,chest,0,chest,3115.0,spOspan.noVer,E7
1199,87.0,D,11.0,1.0,lane,1,lane,4643.0,spOspan.noVer,E7
1200,87.0,D,11.0,2.0,hair,2,hair,4315.0,spOspan.noVer,E7
1201,87.0,D,11.0,3.0,crown,3,crown,4473.0,spOspan.noVer,E7
1202,87.0,D,12.0,0.0,mare,0,mare,3446.0,spOspan.noVer,E7
1203,87.0,D,12.0,1.0,bell,1,bell,4399.0,spOspan.noVer,E7
1204,87.0,D,12.0,2.0,brain,2,brain,4169.0,spOspan.noVer,E7
1205,87.0,D,12.0,3.0,beef,3,beef,4614.0,spOspan.noVer,E7
1206,87.0,D,13.0,0.0,path,0,path,3882.0,spOspan.noVer,E7
1207,87.0,D,13.0,1.0,nest,1,nest,3778.0,spOspan.noVer,E7
1208,87.0,D,13.0,2.0,square,2,wood,4286.0,spOspan.noVer,E7
1209,87.0,D,13.0,3.0,wood,3,beach,4230.0,spOspan.noVer,E7
1210,87.0,D,13.0,4.0,beach,,,3879.0,spOspan.noVer,E7
1211,87.0,D,14.0,0.0,beard,0,beard,3971.0,spOspan.noVer,E7
1212,87.0,D,14.0,1.0,hill,1,hill,4103.0,spOspan.noVer,E7
1213,87.0,D,14.0,2.0,dirt,2,dirt,5302.0,spOspan.noVer,E7
1214,87.0,D,14.0,3.0,card,3,card,4626.0,spOspan.noVer,E7
1215,87.0,D,14.0,4.0,line,,,4610.0,spOspan.noVer,E7
1216,87.0,D,15.0,0.0,ant,0,ant,3004.0,spOspan.noVer,E7
1217,87.0,D,15.0,1.0,air,1,air,4655.0,spOspan.noVer,E7
1218,87.0,D,15.0,2.0,ink,2,breath,5030.0,spOspan.noVer,E7
1219,87.0,D,15.0,3.0,cloud,,,4189.0,spOspan.noVer,E7
1220,87.0,D,15.0,4.0,seat,,,4592.0,spOspan.noVer,E7
1221,87.0,D,15.0,5.0,breath,,,3746.0,spOspan.noVer,E7
1222,87.0,S,16.0,0.0,bone,0,bone,3235.0,spOspan.noVer,E7
1223,87.0,S,16.0,1.0,phone,1,phone,4844.0,spOspan.noVer,E7
1224,87.0,S,16.0,2.0,stone,2,stone,4213.0,spOspan.noVer,E7
1225,87.0,S,17.0,0.0,king,0,king,3292.0,spOspan.noVer,E7
1226,87.0,S,17.0,1.0,ring,1,ring,3772.0,spOspan.noVer,E7
1227,87.0,S,17.0,2.0,spring,2,spring,4503.0,spOspan.noVer,E7
1228,87.0,S,17.0,3.0,string,3,string,6300.0,spOspan.noVer,E7
1229,87.0,S,17.0,4.0,wing,4,,4089.0,spOspan.noVer,E7
1230,87.0,S,18.0,0.0,bread,0,bread,3313.0,spOspan.noVer,E7
1231,87.0,S,18.0,1.0,head,1,head,4494.0,spOspan.noVer,E7
1232,87.0,S,18.0,2.0,thread,2,thread,4109.0,spOspan.noVer,E7
1233,87.0,S,18.0,3.0,bed,3,bed,4353.0,spOspan.noVer,E7
1234,87.0,S,19.0,0.0,band,0,band,3711.0,spOspan.noVer,E7
1235,87.0,S,19.0,1.0,land,1,land,3151.0,spOspan.noVer,E7
1236,87.0,S,19.0,2.0,stand,2,stand,3484.0,spOspan.noVer,E7
1237,87.0,S,19.0,3.0,hand,3,hand,3732.0,spOspan.noVer,E7
1238,87.0,S,20.0,0.0,deer,0,deer,3961.0,spOspan.noVer,E7
1239,87.0,S,20.0,1.0,sphere,1,sphere,4142.0,spOspan.noVer,E7
1240,87.0,S,20.0,2.0,ear,2,near,3546.0,spOspan.noVer,E7
1241,87.0,S,20.0,3.0,tear,,,4647.0,spOspan.noVer,E7
1242,87.0,S,21.0,0.0,jar,0,jar,3379.0,spOspan.noVer,E7
1243,87.0,S,21.0,1.0,bar,1,bar,3839.0,spOspan.noVer,E7
1244,87.0,S,21.0,2.0,car,2,car,3640.0,spOspan.noVer,E7
1245,87.0,S,21.0,3.0,scar,3,scar,4761.0,spOspan.noVer,E7
1246,87.0,S,21.0,4.0,star,,,4973.0,spOspan.noVer,E7
1247,87.0,S,22.0,0.0,cream,0,cream,3159.0,spOspan.noVer,E7
1248,87.0,S,22.0,1.0,team,1,team,4350.0,spOspan.noVer,E7
1249,87.0,S,22.0,2.0,steam,2,steam,4786.0,spOspan.noVer,E7
1250,87.0,S,23.0,0.0,doll,0,doll,4478.0,spOspan.noVer,E7
1251,87.0,S,23.0,1.0,ball,1,ball,3733.0,spOspan.noVer,E7
1252,87.0,S,23.0,2.0,shawl,2,shawl,3506.0,spOspan.noVer,E7
1253,87.0,S,23.0,3.0,hall,3,hall,5136.0,spOspan.noVer,E7
1254,87.0,S,23.0,4.0,brawl,4,brawl,3254.0,spOspan.noVer,E7
1255,87.0,S,23.0,5.0,wall,,,4199.0,spOspan.noVer,E7
1256,87.0,S,24.0,0.0,pie,0,pie,4055.0,spOspan.noVer,E7
1257,87.0,S,24.0,1.0,fly,1,fly,4102.0,spOspan.noVer,E7
1258,87.0,S,24.0,2.0,tie,2,tie,4092.0,spOspan.noVer,E7
1259,87.0,S,24.0,3.0,sky,3,sky,3898.0,spOspan.noVer,E7
1260,87.0,S,24.0,4.0,eye,,,4905.0,spOspan.noVer,E7
1261,87.0,S,25.0,0.0,blouse,0,blouse,819.0,spOspan.noVer,E7
1262,87.0,S,25.0,1.0,house,1,house,6128.0,spOspan.noVer,E7
1263,87.0,S,25.0,2.0,mouse,2,mouse,3483.0,spOspan.noVer,E7
1264,87.0,S,26.0,0.0,mail,0,male,3085.0,spOspan.noVer,E7
1265,87.0,S,26.0,1.0,sail,1,sail,3325.0,spOspan.noVer,E7
1266,87.0,S,26.0,2.0,trail,2,whale,4755.0,spOspan.noVer,E7
1267,87.0,S,26.0,3.0,wail,3,fail,4605.0,spOspan.noVer,E7
1268,87.0,S,26.0,4.0,tail,,,3766.0,spOspan.noVer,E7
1269,87.0,S,26.0,5.0,jail,,,4315.0,spOspan.noVer,E7
1270,87.0,S,27.0,0.0,boot,0,boot,3976.0,spOspan.noVer,E7
1271,87.0,S,27.0,1.0,suit,1,suit,6267.0,spOspan.noVer,E7
1272,87.0,S,27.0,2.0,flute,2,brute,4593.0,spOspan.noVer,E7
1273,87.0,S,27.0,3.0,loot,,,5578.0,spOspan.noVer,E7
1274,87.0,S,27.0,4.0,root,,,4084.0,spOspan.noVer,E7
1275,87.0,S,27.0,5.0,brute,,,3477.0,spOspan.noVer,E7
1276,91.0,P,0.0,0.0,bath,0,bath,,spOspan.noVer,E7
1277,91.0,P,0.0,1.0,dawn,1,dawn,,spOspan.noVer,E7
1278,91.0,P,1.0,0.0,hood,0,hood,,spOspan.noVer,E7
1279,91.0,P,1.0,1.0,wood,1,wood,,spOspan.noVer,E7
1280,91.0,P,2.0,0.0,earth,0,earth,,spOspan.noVer,E7
1281,91.0,P,2.0,1.0,peach,1,peach,,spOspan.noVer,E7
1282,91.0,P,3.0,0.0,farm,0,farm,,spOspan.noVer,E7
1283,91.0,P,3.0,1.0,arm,1,arm,,spOspan.noVer,E7
1284,91.0,S,4.0,0.0,mail,0,mail,4591.0,spOspan.noVer,E7
1285,91.0,S,4.0,1.0,sail,1,,4545.0,spOspan.noVer,E7
1286,91.0,S,4.0,2.0,trail,2,fail,4574.0,spOspan.noVer,E7
1287,91.0,S,4.0,3.0,wail,3,wail,4824.0,spOspan.noVer,E7
1288,91.0,S,4.0,4.0,tail,4,jail,4680.0,spOspan.noVer,E7
1289,91.0,S,4.0,5.0,jail,,,4536.0,spOspan.noVer,E7
1290,91.0,S,5.0,0.0,blouse,0,blouse,4063.0,spOspan.noVer,E7
1291,91.0,S,5.0,1.0,house,1,house,4392.0,spOspan.noVer,E7
1292,91.0,S,5.0,2.0,mouse,2,mouse,4474.0,spOspan.noVer,E7
1293,91.0,S,6.0,0.0,doll,0,doll,4479.0,spOspan.noVer,E7
1294,91.0,S,6.0,1.0,ball,1,ball,4264.0,spOspan.noVer,E7
1295,91.0,S,6.0,2.0,shawl,2,shawl,4287.0,spOspan.noVer,E7
1296,91.0,S,6.0,3.0,hall,3,,4197.0,spOspan.noVer,E7
1297,91.0,S,6.0,4.0,brawl,4,brawl,4536.0,spOspan.noVer,E7
1298,91.0,S,6.0,5.0,wall,,,4852.0,spOspan.noVer,E7
1299,91.0,S,7.0,0.0,bone,0,bone,4165.0,spOspan.noVer,E7
1300,91.0,S,7.0,1.0,phone,1,,4354.0,spOspan.noVer,E7
1301,91.0,S,7.0,2.0,stone,2,stone,4533.0,spOspan.noVer,E7
1302,91.0,S,8.0,0.0,cream,0,cream,3837.0,spOspan.noVer,E7
1303,91.0,S,8.0,1.0,team,1,dream,4029.0,spOspan.noVer,E7
1304,91.0,S,8.0,2.0,steam,2,steam,4014.0,spOspan.noVer,E7
1305,91.0,S,9.0,0.0,bread,0,bread,4588.0,spOspan.noVer,E7
1306,91.0,S,9.0,1.0,head,1,,4063.0,spOspan.noVer,E7
1307,91.0,S,9.0,2.0,thread,2,thread,3879.0,spOspan.noVer,E7
1308,91.0,S,9.0,3.0,bed,3,bed,4639.0,spOspan.noVer,E7
1309,91.0,S,10.0,0.0,jar,0,jar,4627.0,spOspan.noVer,E7
1310,91.0,S,10.0,1.0,bar,1,car,3877.0,spOspan.noVer,E7
1311,91.0,S,10.0,2.0,car,2,scar,4348.0,spOspan.noVer,E7
1312,91.0,S,10.0,3.0,scar,3,star,4032.0,spOspan.noVer,E7
1313,91.0,S,10.0,4.0,star,,,3593.0,spOspan.noVer,E7
1314,91.0,S,11.0,0.0,boot,0,,4122.0,spOspan.noVer,E7
1315,91.0,S,11.0,1.0,suit,1,,3647.0,spOspan.noVer,E7
1316,91.0,S,11.0,2.0,flute,2,suit,3615.0,spOspan.noVer,E7
1317,91.0,S,11.0,3.0,loot,3,loot,3947.0,spOspan.noVer,E7
1318,91.0,S,11.0,4.0,root,4,flute,3791.0,spOspan.noVer,E7
1319,91.0,S,11.0,5.0,brute,,,4986.0,spOspan.noVer,E7
1320,91.0,S,12.0,0.0,band,0,band,4345.0,spOspan.noVer,E7
1321,91.0,S,12.0,1.0,land,1,land,4022.0,spOspan.noVer,E7
1322,91.0,S,12.0,2.0,stand,2,stand,4151.0,spOspan.noVer,E7
1323,91.0,S,12.0,3.0,hand,3,hand,3867.0,spOspan.noVer,E7
1324,91.0,S,13.0,0.0,pie,0,pie,3660.0,spOspan.noVer,E7
1325,91.0,S,13.0,1.0,fly,1,fly,4005.0,spOspan.noVer,E7
1326,91.0,S,13.0,2.0,tie,2,sky,4295.0,spOspan.noVer,E7
1327,91.0,S,13.0,3.0,sky,3,eye,4053.0,spOspan.noVer,E7
1328,91.0,S,13.0,4.0,eye,,,4661.0,spOspan.noVer,E7
1329,91.0,S,14.0,0.0,deer,0,deer,3858.0,spOspan.noVer,E7
1330,91.0,S,14.0,1.0,sphere,1,sphere,3907.0,spOspan.noVer,E7
1331,91.0,S,14.0,2.0,ear,2,,4737.0,spOspan.noVer,E7
1332,91.0,S,14.0,3.0,tear,3,tear,4285.0,spOspan.noVer,E7
1333,91.0,S,15.0,0.0,king,0,,4154.0,spOspan.noVer,E7
1334,91.0,S,15.0,1.0,ring,1,spring,3927.0,spOspan.noVer,E7
1335,91.0,S,15.0,2.0,spring,2,string,4516.0,spOspan.noVer,E7
1336,91.0,S,15.0,3.0,string,3,wing,4536.0,spOspan.noVer,E7
1337,91.0,S,15.0,4.0,wing,,,4358.0,spOspan.noVer,E7
1338,91.0,D,16.0,0.0,beard,0,,4332.0,spOspan.noVer,E7
1339,91.0,D,16.0,1.0,hill,1,hill,4562.0,spOspan.noVer,E7
1340,91.0,D,16.0,2.0,dirt,2,dirt,4805.0,spOspan.noVer,E7
1341,91.0,D,16.0,3.0,card,3,card,4694.0,spOspan.noVer,E7
1342,91.0,D,16.0,4.0,line,4,line,4628.0,spOspan.noVer,E7
1343,91.0,D,17.0,0.0,path,0,path,4671.0,spOspan.noVer,E7
1344,91.0,D,17.0,1.0,nest,1,nest,3999.0,spOspan.noVer,E7
1345,91.0,D,17.0,2.0,square,2,,3873.0,spOspan.noVer,E7
1346,91.0,D,17.0,3.0,wood,3,wood,4329.0,spOspan.noVer,E7
1347,91.0,D,17.0,4.0,beach,4,beach,4045.0,spOspan.noVer,E7
1348,91.0,D,18.0,0.0,ant,0,ant,4127.0,spOspan.noVer,E7
1349,91.0,D,18.0,1.0,air,1,air,4179.0,spOspan.noVer,E7
1350,91.0,D,18.0,2.0,ink,2,ink,4343.0,spOspan.noVer,E7
1351,91.0,D,18.0,3.0,cloud,3,,4458.0,spOspan.noVer,E7
1352,91.0,D,18.0,4.0,seat,4,seat,4539.0,spOspan.noVer,E7
1353,91.0,D,18.0,5.0,breath,5,breath,4343.0,spOspan.noVer,E7
1354,91.0,D,19.0,0.0,deck,0,deck,4314.0,spOspan.noVer,E7
1355,91.0,D,19.0,1.0,slice,1,slice,4256.0,spOspan.noVer,E7
1356,91.0,D,19.0,2.0,rat,2,rat,3632.0,spOspan.noVer,E7
1357,91.0,D,20.0,0.0,mare,0,mare,4054.0,spOspan.noVer,E7
1358,91.0,D,20.0,1.0,bell,1,bell,3894.0,spOspan.noVer,E7
1359,91.0,D,20.0,2.0,brain,2,brain,3982.0,spOspan.noVer,E7
1360,91.0,D,20.0,3.0,beef,3,beef,4401.0,spOspan.noVer,E7
1361,91.0,D,21.0,0.0,chest,0,chest,3884.0,spOspan.noVer,E7
1362,91.0,D,21.0,1.0,lane,1,lane,4003.0,spOspan.noVer,E7
1363,91.0,D,21.0,2.0,hair,2,hair,3926.0,spOspan.noVer,E7
1364,91.0,D,21.0,3.0,crown,3,crown,4092.0,spOspan.noVer,E7
1365,91.0,D,22.0,0.0,neck,0,neck,3834.0,spOspan.noVer,E7
1366,91.0,D,22.0,1.0,town,1,town,4540.0,spOspan.noVer,E7
1367,91.0,D,22.0,2.0,hat,2,hat,4080.0,spOspan.noVer,E7
1368,91.0,D,22.0,3.0,street,3,street,4559.0,spOspan.noVer,E7
1369,91.0,D,23.0,0.0,rice,0,rice,4004.0,spOspan.noVer,E7
1370,91.0,D,23.0,1.0,cat,1,cat,4006.0,spOspan.noVer,E7
1371,91.0,D,23.0,2.0,trash,2,trash,3831.0,spOspan.noVer,E7
1372,91.0,D,24.0,0.0,toy,0,toy,3726.0,spOspan.noVer,E7
1373,91.0,D,24.0,1.0,wreck,1,wreck,3709.0,spOspan.noVer,E7
1374,91.0,D,24.0,2.0,frown,2,frown,4347.0,spOspan.noVer,E7
1375,91.0,D,25.0,0.0,coin,0,,4111.0,spOspan.noVer,E7
1376,91.0,D,25.0,1.0,film,1,film,4077.0,spOspan.noVer,E7
1377,91.0,D,25.0,2.0,leaf,2,coin,3997.0,spOspan.noVer,E7
1378,91.0,D,25.0,3.0,train,3,train,3958.0,spOspan.noVer,E7
1379,91.0,D,25.0,4.0,map,4,map,4587.0,spOspan.noVer,E7
1380,91.0,D,25.0,5.0,art,5,art,4357.0,spOspan.noVer,E7
1381,91.0,D,26.0,0.0,spice,0,spice,4623.0,spOspan.noVer,E7
1382,91.0,D,26.0,1.0,heat,1,heat,3960.0,spOspan.noVer,E7
1383,91.0,D,26.0,2.0,shape,2,shape,4276.0,spOspan.noVer,E7
1384,91.0,D,26.0,3.0,pear,3,pear,4299.0,spOspan.noVer,E7
1385,91.0,D,26.0,4.0,guest,4,guest,4194.0,spOspan.noVer,E7
1386,91.0,D,27.0,0.0,shell,0,,3964.0,spOspan.noVer,E7
1387,91.0,D,27.0,1.0,tree,1,broom,3848.0,spOspan.noVer,E7
1388,91.0,D,27.0,2.0,bowl,2,,4368.0,spOspan.noVer,E7
1389,91.0,D,27.0,3.0,broom,3,,4612.0,spOspan.noVer,E7
1390,91.0,D,27.0,4.0,test,4,test,4268.0,spOspan.noVer,E7
1391,91.0,D,27.0,5.0,ground,5,ground,3981.0,spOspan.noVer,E7
1392,93.0,P,0.0,0.0,bath,0,bath,,spOspan.noVer,E7
1393,93.0,P,0.0,1.0,dawn,1,dawn,,spOspan.noVer,E7
1394,93.0,P,1.0,0.0,earth,0,earth,,spOspan.noVer,E7
1395,93.0,P,1.0,1.0,peach,1,peach,,spOspan.noVer,E7
1396,93.0,P,2.0,0.0,farm,0,farm,,spOspan.noVer,E7
1397,93.0,P,2.0,1.0,arm,1,arm,,spOspan.noVer,E7
1398,93.0,P,3.0,0.0,hood,0,hood,,spOspan.noVer,E7
1399,93.0,P,3.0,1.0,wood,1,wood,,spOspan.noVer,E7
1400,93.0,D,4.0,0.0,rice,0,rice,3541.0,spOspan.noVer,E7
1401,93.0,D,4.0,1.0,cat,1,cat,3755.0,spOspan.noVer,E7
1402,93.0,D,4.0,2.0,trash,2,trash,4087.0,spOspan.noVer,E7
1403,93.0,D,5.0,0.0,spice,0,spice,3295.0,spOspan.noVer,E7
1404,93.0,D,5.0,1.0,heat,1,heat,3710.0,spOspan.noVer,E7
1405,93.0,D,5.0,2.0,shape,2,shape,4013.0,spOspan.noVer,E7
1406,93.0,D,5.0,3.0,pear,3,pear,4063.0,spOspan.noVer,E7
1407,93.0,D,5.0,4.0,guest,4,guest,3933.0,spOspan.noVer,E7
1408,93.0,D,6.0,0.0,mare,0,mare,3349.0,spOspan.noVer,E7
1409,93.0,D,6.0,1.0,bell,1,bell,3819.0,spOspan.noVer,E7
1410,93.0,D,6.0,2.0,brain,2,brain,3789.0,spOspan.noVer,E7
1411,93.0,D,6.0,3.0,beef,3,beef,4832.0,spOspan.noVer,E7
1412,93.0,D,7.0,0.0,path,0,path,3771.0,spOspan.noVer,E7
1413,93.0,D,7.0,1.0,nest,1,nest,3335.0,spOspan.noVer,E7
1414,93.0,D,7.0,2.0,square,2,square,3564.0,spOspan.noVer,E7
1415,93.0,D,7.0,3.0,wood,3,wood,3761.0,spOspan.noVer,E7
1416,93.0,D,7.0,4.0,beach,4,beach,3862.0,spOspan.noVer,E7
1417,93.0,D,8.0,0.0,deck,0,deck,3128.0,spOspan.noVer,E7
1418,93.0,D,8.0,1.0,slice,1,slice,3966.0,spOspan.noVer,E7
1419,93.0,D,8.0,2.0,rat,2,rat,3811.0,spOspan.noVer,E7
1420,93.0,D,9.0,0.0,toy,0,toy,3636.0,spOspan.noVer,E7
1421,93.0,D,9.0,1.0,wreck,1,wreck,3845.0,spOspan.noVer,E7
1422,93.0,D,9.0,2.0,frown,2,frown,3750.0,spOspan.noVer,E7
1423,93.0,D,10.0,0.0,beard,0,beard,4056.0,spOspan.noVer,E7
1424,93.0,D,10.0,1.0,hill,1,hill,3824.0,spOspan.noVer,E7
1425,93.0,D,10.0,2.0,dirt,2,dirt,4026.0,spOspan.noVer,E7
1426,93.0,D,10.0,3.0,card,3,card,3563.0,spOspan.noVer,E7
1427,93.0,D,10.0,4.0,line,4,line,4447.0,spOspan.noVer,E7
1428,93.0,D,11.0,0.0,ant,0,ant,3238.0,spOspan.noVer,E7
1429,93.0,D,11.0,1.0,air,1,,3568.0,spOspan.noVer,E7
1430,93.0,D,11.0,2.0,ink,2,,3276.0,spOspan.noVer,E7
1431,93.0,D,11.0,3.0,cloud,3,,4500.0,spOspan.noVer,E7
1432,93.0,D,11.0,4.0,seat,4,air,4656.0,spOspan.noVer,E7
1433,93.0,D,11.0,5.0,breath,5,cloud,4194.0,spOspan.noVer,E7
1434,93.0,D,12.0,0.0,coin,0,coin,3586.0,spOspan.noVer,E7
1435,93.0,D,12.0,1.0,film,1,film,3582.0,spOspan.noVer,E7
1436,93.0,D,12.0,2.0,leaf,2,leaf,4265.0,spOspan.noVer,E7
1437,93.0,D,12.0,3.0,train,3,,4688.0,spOspan.noVer,E7
1438,93.0,D,12.0,4.0,map,4,train,5063.0,spOspan.noVer,E7
1439,93.0,D,12.0,5.0,art,5,map,4870.0,spOspan.noVer,E7
1440,93.0,D,13.0,0.0,shell,0,shell,3555.0,spOspan.noVer,E7
1441,93.0,D,13.0,1.0,tree,1,tree,4135.0,spOspan.noVer,E7
1442,93.0,D,13.0,2.0,bowl,2,bowl,4493.0,spOspan.noVer,E7
1443,93.0,D,13.0,3.0,broom,3,broom,4746.0,spOspan.noVer,E7
1444,93.0,D,13.0,4.0,test,4,test,4262.0,spOspan.noVer,E7
1445,93.0,D,13.0,5.0,ground,5,ground,4525.0,spOspan.noVer,E7
1446,93.0,D,14.0,0.0,chest,0,chest,3283.0,spOspan.noVer,E7
1447,93.0,D,14.0,1.0,lane,1,lane,3588.0,spOspan.noVer,E7
1448,93.0,D,14.0,2.0,hair,2,hair,4318.0,spOspan.noVer,E7
1449,93.0,D,14.0,3.0,crown,3,crown,4011.0,spOspan.noVer,E7
1450,93.0,D,15.0,0.0,neck,0,,3566.0,spOspan.noVer,E7
1451,93.0,D,15.0,1.0,town,1,town,3685.0,spOspan.noVer,E7
1452,93.0,D,15.0,2.0,hat,2,hat,4076.0,spOspan.noVer,E7
1453,93.0,D,15.0,3.0,street,3,street,6803.0,spOspan.noVer,E7
1454,93.0,S,16.0,0.0,cream,0,cream,4085.0,spOspan.noVer,E7
1455,93.0,S,16.0,1.0,team,1,team,4932.0,spOspan.noVer,E7
1456,93.0,S,16.0,2.0,steam,2,steam,4776.0,spOspan.noVer,E7
1457,93.0,S,17.0,0.0,band,0,band,3567.0,spOspan.noVer,E7
1458,93.0,S,17.0,1.0,land,1,land,4684.0,spOspan.noVer,E7
1459,93.0,S,17.0,2.0,stand,2,stand,3234.0,spOspan.noVer,E7
1460,93.0,S,17.0,3.0,hand,3,hand,5589.0,spOspan.noVer,E7
1461,93.0,S,18.0,0.0,bread,0,bread,3381.0,spOspan.noVer,E7
1462,93.0,S,18.0,1.0,head,1,head,3834.0,spOspan.noVer,E7
1463,93.0,S,18.0,2.0,thread,2,thread,4217.0,spOspan.noVer,E7
1464,93.0,S,18.0,3.0,bed,3,bed,4501.0,spOspan.noVer,E7
1465,93.0,S,19.0,0.0,pie,0,pie,3166.0,spOspan.noVer,E7
1466,93.0,S,19.0,1.0,fly,1,fly,3723.0,spOspan.noVer,E7
1467,93.0,S,19.0,2.0,tie,2,tie,3545.0,spOspan.noVer,E7
1468,93.0,S,19.0,3.0,sky,3,sky,4294.0,spOspan.noVer,E7
1469,93.0,S,19.0,4.0,eye,4,eye,4628.0,spOspan.noVer,E7
1470,93.0,S,20.0,0.0,doll,0,doll,3570.0,spOspan.noVer,E7
1471,93.0,S,20.0,1.0,ball,1,ball,3463.0,spOspan.noVer,E7
1472,93.0,S,20.0,2.0,shawl,2,shawl,3319.0,spOspan.noVer,E7
1473,93.0,S,20.0,3.0,hall,3,hall,4525.0,spOspan.noVer,E7
1474,93.0,S,20.0,4.0,brawl,4,brawl,3809.0,spOspan.noVer,E7
1475,93.0,S,20.0,5.0,wall,5,wall,4467.0,spOspan.noVer,E7
1476,93.0,S,21.0,0.0,deer,0,deer,3425.0,spOspan.noVer,E7
1477,93.0,S,21.0,1.0,sphere,1,sphere,3532.0,spOspan.noVer,E7
1478,93.0,S,21.0,2.0,ear,2,ear,4217.0,spOspan.noVer,E7
1479,93.0,S,21.0,3.0,tear,3,tear,4612.0,spOspan.noVer,E7
1480,93.0,S,22.0,0.0,jar,0,bar,3394.0,spOspan.noVer,E7
1481,93.0,S,22.0,1.0,bar,1,jar,3806.0,spOspan.noVer,E7
1482,93.0,S,22.0,2.0,car,2,car,3976.0,spOspan.noVer,E7
1483,93.0,S,22.0,3.0,scar,3,scar,5011.0,spOspan.noVer,E7
1484,93.0,S,22.0,4.0,star,4,star,4620.0,spOspan.noVer,E7
1485,93.0,S,23.0,0.0,king,0,king,3405.0,spOspan.noVer,E7
1486,93.0,S,23.0,1.0,ring,1,ring,4631.0,spOspan.noVer,E7
1487,93.0,S,23.0,2.0,spring,2,spring,3769.0,spOspan.noVer,E7
1488,93.0,S,23.0,3.0,string,3,string,4221.0,spOspan.noVer,E7
1489,93.0,S,23.0,4.0,wing,4,wing,4438.0,spOspan.noVer,E7
1490,93.0,S,24.0,0.0,bone,0,bone,3320.0,spOspan.noVer,E7
1491,93.0,S,24.0,1.0,phone,1,phone,4487.0,spOspan.noVer,E7
1492,93.0,S,24.0,2.0,stone,2,stone,4613.0,spOspan.noVer,E7
1493,93.0,S,25.0,0.0,blouse,0,blouse,3128.0,spOspan.noVer,E7
1494,93.0,S,25.0,1.0,house,1,house,4175.0,spOspan.noVer,E7
1495,93.0,S,25.0,2.0,mouse,2,mouse,3906.0,spOspan.noVer,E7
1496,93.0,S,26.0,0.0,boot,0,,3271.0,spOspan.noVer,E7
1497,93.0,S,26.0,1.0,suit,1,suit,4184.0,spOspan.noVer,E7
1498,93.0,S,26.0,2.0,flute,2,flute,3907.0,spOspan.noVer,E7
1499,93.0,S,26.0,3.0,loot,3,loot,5481.0,spOspan.noVer,E7
1500,93.0,S,26.0,4.0,root,4,root,4854.0,spOspan.noVer,E7
1501,93.0,S,26.0,5.0,brute,5,brute,4381.0,spOspan.noVer,E7
1502,93.0,S,27.0,0.0,mail,0,mail,3653.0,spOspan.noVer,E7
1503,93.0,S,27.0,1.0,sail,1,sail,4141.0,spOspan.noVer,E7
1504,93.0,S,27.0,2.0,trail,2,trail,4321.0,spOspan.noVer,E7
1505,93.0,S,27.0,3.0,wail,3,wail,4086.0,spOspan.noVer,E7
1506,93.0,S,27.0,4.0,tail,4,tail,3773.0,spOspan.noVer,E7
1507,93.0,S,27.0,5.0,jail,5,jail,4760.0,spOspan.noVer,E7
1508,95.0,P,0.0,0.0,hood,0,hood,,spOspan.noVer,E7
1509,95.0,P,0.0,1.0,wood,1,wood,,spOspan.noVer,E7
1510,95.0,P,1.0,0.0,bath,0,bath,,spOspan.noVer,E7
1511,95.0,P,1.0,1.0,dawn,1,dawn,,spOspan.noVer,E7
1512,95.0,P,2.0,0.0,earth,0,earth,,spOspan.noVer,E7
1513,95.0,P,2.0,1.0,peach,1,peach,,spOspan.noVer,E7
1514,95.0,P,3.0,0.0,farm,0,farm,,spOspan.noVer,E7
1515,95.0,P,3.0,1.0,arm,1,arm,,spOspan.noVer,E7
1516,95.0,S,4.0,0.0,doll,0,doll,3469.0,spOspan.noVer,E7
1517,95.0,S,4.0,1.0,ball,1,ball,3072.0,spOspan.noVer,E7
1518,95.0,S,4.0,2.0,shawl,2,shawl,3083.0,spOspan.noVer,E7
1519,95.0,S,4.0,3.0,hall,3,hall,3368.0,spOspan.noVer,E7
1520,95.0,S,4.0,4.0,brawl,4,brawl,4294.0,spOspan.noVer,E7
1521,95.0,S,4.0,5.0,wall,5,mall,3565.0,spOspan.noVer,E7
1522,95.0,S,5.0,0.0,deer,0,deer,3445.0,spOspan.noVer,E7
1523,95.0,S,5.0,1.0,sphere,1,sphere,3163.0,spOspan.noVer,E7
1524,95.0,S,5.0,2.0,ear,2,ear,3257.0,spOspan.noVer,E7
1525,95.0,S,5.0,3.0,tear,3,tear,4273.0,spOspan.noVer,E7
1526,95.0,S,6.0,0.0,king,0,king,3747.0,spOspan.noVer,E7
1527,95.0,S,6.0,1.0,ring,1,ring,3501.0,spOspan.noVer,E7
1528,95.0,S,6.0,2.0,spring,2,spring,3261.0,spOspan.noVer,E7
1529,95.0,S,6.0,3.0,string,3,string,3629.0,spOspan.noVer,E7
1530,95.0,S,6.0,4.0,wing,4,wing,3248.0,spOspan.noVer,E7
1531,95.0,S,7.0,0.0,bone,0,bone,3483.0,spOspan.noVer,E7
1532,95.0,S,7.0,1.0,phone,1,phone,3265.0,spOspan.noVer,E7
1533,95.0,S,7.0,2.0,stone,2,stone,4536.0,spOspan.noVer,E7
1534,95.0,S,8.0,0.0,band,0,band,3392.0,spOspan.noVer,E7
1535,95.0,S,8.0,1.0,land,1,land,2899.0,spOspan.noVer,E7
1536,95.0,S,8.0,2.0,stand,2,,3115.0,spOspan.noVer,E7
1537,95.0,S,8.0,3.0,hand,3,stand,5030.0,spOspan.noVer,E7
1538,95.0,S,9.0,0.0,blouse,0,blouse,3856.0,spOspan.noVer,E7
1539,95.0,S,9.0,1.0,house,1,house,3920.0,spOspan.noVer,E7
1540,95.0,S,9.0,2.0,mouse,2,mouse,4311.0,spOspan.noVer,E7
1541,95.0,S,10.0,0.0,boot,0,boot,3735.0,spOspan.noVer,E7
1542,95.0,S,10.0,1.0,suit,1,suit,3670.0,spOspan.noVer,E7
1543,95.0,S,10.0,2.0,flute,2,flute,3264.0,spOspan.noVer,E7
1544,95.0,S,10.0,3.0,loot,3,loot,4640.0,spOspan.noVer,E7
1545,95.0,S,10.0,4.0,root,4,root,4326.0,spOspan.noVer,E7
1546,95.0,S,10.0,5.0,brute,5,brute,5180.0,spOspan.noVer,E7
1547,95.0,S,11.0,0.0,bread,0,bread,3379.0,spOspan.noVer,E7
1548,95.0,S,11.0,1.0,head,1,head,3651.0,spOspan.noVer,E7
1549,95.0,S,11.0,2.0,thread,2,thread,3073.0,spOspan.noVer,E7
1550,95.0,S,11.0,3.0,bed,3,bed,4851.0,spOspan.noVer,E7
1551,95.0,S,12.0,0.0,jar,0,jar,3571.0,spOspan.noVer,E7
1552,95.0,S,12.0,1.0,bar,1,bar,2844.0,spOspan.noVer,E7
1553,95.0,S,12.0,2.0,car,2,car,3561.0,spOspan.noVer,E7
1554,95.0,S,12.0,3.0,scar,3,scar,3358.0,spOspan.noVer,E7
1555,95.0,S,12.0,4.0,star,4,far,4073.0,spOspan.noVer,E7
1556,95.0,S,13.0,0.0,cream,0,cream,3969.0,spOspan.noVer,E7
1557,95.0,S,13.0,1.0,team,1,team,5142.0,spOspan.noVer,E7
1558,95.0,S,13.0,2.0,steam,2,steam,3871.0,spOspan.noVer,E7
1559,95.0,S,14.0,0.0,mail,0,mail,3630.0,spOspan.noVer,E7
1560,95.0,S,14.0,1.0,sail,1,tail,4338.0,spOspan.noVer,E7
1561,95.0,S,14.0,2.0,trail,2,sail,4337.0,spOspan.noVer,E7
1562,95.0,S,14.0,3.0,wail,3,,5377.0,spOspan.noVer,E7
1563,95.0,S,14.0,4.0,tail,4,bail,3513.0,spOspan.noVer,E7
1564,95.0,S,14.0,5.0,jail,5,jail,3876.0,spOspan.noVer,E7
1565,95.0,S,15.0,0.0,pie,0,pie,3342.0,spOspan.noVer,E7
1566,95.0,S,15.0,1.0,fly,1,fly,2974.0,spOspan.noVer,E7
1567,95.0,S,15.0,2.0,tie,2,tie,4646.0,spOspan.noVer,E7
1568,95.0,S,15.0,3.0,sky,3,sky,4581.0,spOspan.noVer,E7
1569,95.0,S,15.0,4.0,eye,4,,5364.0,spOspan.noVer,E7
1570,95.0,D,16.0,0.0,path,0,path,3508.0,spOspan.noVer,E7
1571,95.0,D,16.0,1.0,nest,1,,2959.0,spOspan.noVer,E7
1572,95.0,D,16.0,2.0,square,2,square,3357.0,spOspan.noVer,E7
1573,95.0,D,16.0,3.0,wood,3,nest,4063.0,spOspan.noVer,E7
1574,95.0,D,16.0,4.0,beach,4,beach,5456.0,spOspan.noVer,E7
1575,95.0,D,17.0,0.0,toy,0,toy,4162.0,spOspan.noVer,E7
1576,95.0,D,17.0,1.0,wreck,1,wreck,3367.0,spOspan.noVer,E7
1577,95.0,D,17.0,2.0,frown,2,frown,3548.0,spOspan.noVer,E7
1578,95.0,D,18.0,0.0,shell,0,shell,3346.0,spOspan.noVer,E7
1579,95.0,D,18.0,1.0,tree,1,tree,3116.0,spOspan.noVer,E7
1580,95.0,D,18.0,2.0,bowl,2,bowl,3111.0,spOspan.noVer,E7
1581,95.0,D,18.0,3.0,broom,3,broom,3658.0,spOspan.noVer,E7
1582,95.0,D,18.0,4.0,test,4,test,5897.0,spOspan.noVer,E7
1583,95.0,D,18.0,5.0,ground,5,ground,3994.0,spOspan.noVer,E7
1584,95.0,D,19.0,0.0,spice,0,spice,3690.0,spOspan.noVer,E7
1585,95.0,D,19.0,1.0,heat,1,heat,4487.0,spOspan.noVer,E7
1586,95.0,D,19.0,2.0,shape,2,shape,3348.0,spOspan.noVer,E7
1587,95.0,D,19.0,3.0,pear,3,pear,3663.0,spOspan.noVer,E7
1588,95.0,D,19.0,4.0,guest,4,guest,3175.0,spOspan.noVer,E7
1589,95.0,D,20.0,0.0,mare,0,mare,3532.0,spOspan.noVer,E7
1590,95.0,D,20.0,1.0,bell,1,bell,3652.0,spOspan.noVer,E7
1591,95.0,D,20.0,2.0,brain,2,brain,4013.0,spOspan.noVer,E7
1592,95.0,D,20.0,3.0,beef,3,beef,3316.0,spOspan.noVer,E7
1593,95.0,D,21.0,0.0,beard,0,beard,3748.0,spOspan.noVer,E7
1594,95.0,D,21.0,1.0,hill,1,hill,3599.0,spOspan.noVer,E7
1595,95.0,D,21.0,2.0,dirt,2,dirt,3868.0,spOspan.noVer,E7
1596,95.0,D,21.0,3.0,card,3,card,3599.0,spOspan.noVer,E7
1597,95.0,D,21.0,4.0,line,4,line,3524.0,spOspan.noVer,E7
1598,95.0,D,22.0,0.0,neck,0,,3404.0,spOspan.noVer,E7
1599,95.0,D,22.0,1.0,town,1,town,2834.0,spOspan.noVer,E7
1600,95.0,D,22.0,2.0,hat,2,,4349.0,spOspan.noVer,E7
1601,95.0,D,22.0,3.0,street,3,street,6655.0,spOspan.noVer,E7
1602,95.0,D,23.0,0.0,deck,0,deck,3373.0,spOspan.noVer,E7
1603,95.0,D,23.0,1.0,slice,1,slice,3413.0,spOspan.noVer,E7
1604,95.0,D,23.0,2.0,rat,2,rat,6350.0,spOspan.noVer,E7
1605,95.0,D,24.0,0.0,coin,0,coin,3767.0,spOspan.noVer,E7
1606,95.0,D,24.0,1.0,film,1,film,3333.0,spOspan.noVer,E7
1607,95.0,D,24.0,2.0,leaf,2,leaf,4181.0,spOspan.noVer,E7
1608,95.0,D,24.0,3.0,train,3,train,4622.0,spOspan.noVer,E7
1609,95.0,D,24.0,4.0,map,4,map,3829.0,spOspan.noVer,E7
1610,95.0,D,24.0,5.0,art,5,art,4344.0,spOspan.noVer,E7
1611,95.0,D,25.0,0.0,rice,0,rice,3018.0,spOspan.noVer,E7
1612,95.0,D,25.0,1.0,cat,1,cat,3250.0,spOspan.noVer,E7
1613,95.0,D,25.0,2.0,trash,2,trash,3367.0,spOspan.noVer,E7
1614,95.0,D,26.0,0.0,ant,0,ant,3279.0,spOspan.noVer,E7
1615,95.0,D,26.0,1.0,air,1,air,3046.0,spOspan.noVer,E7
1616,95.0,D,26.0,2.0,ink,2,ink,3138.0,spOspan.noVer,E7
1617,95.0,D,26.0,3.0,cloud,3,cloud,3442.0,spOspan.noVer,E7
1618,95.0,D,26.0,4.0,seat,4,seat,5177.0,spOspan.noVer,E7
1619,95.0,D,26.0,5.0,breath,5,breath,3496.0,spOspan.noVer,E7
1620,95.0,D,27.0,0.0,chest,0,chest,3013.0,spOspan.noVer,E7
1621,95.0,D,27.0,1.0,lane,1,lane,3077.0,spOspan.noVer,E7
1622,95.0,D,27.0,2.0,hair,2,hair,4096.0,spOspan.noVer,E7
1623,95.0,D,27.0,3.0,crown,3,crown,2752.0,spOspan.noVer,E7
1624,105.0,P,0.0,0.0,bath,0,bath,,spOspan.noVer,E7
1625,105.0,P,0.0,1.0,dawn,1,dawn,,spOspan.noVer,E7
1626,105.0,P,1.0,0.0,earth,0,earth,,spOspan.noVer,E7
1627,105.0,P,1.0,1.0,peach,1,peach,,spOspan.noVer,E7
1628,105.0,P,2.0,0.0,hood,0,hood,,spOspan.noVer,E7
1629,105.0,P,2.0,1.0,wood,1,wood,,spOspan.noVer,E7
1630,105.0,P,3.0,0.0,farm,0,farm,,spOspan.noVer,E7
1631,105.0,P,3.0,1.0,arm,1,arm,,spOspan.noVer,E7
1632,105.0,D,4.0,0.0,shell,0,shell,3350.0,spOspan.noVer,E7
1633,105.0,D,4.0,1.0,tree,1,tree,3420.0,spOspan.noVer,E7
1634,105.0,D,4.0,2.0,bowl,2,bowl,3502.0,spOspan.noVer,E7
1635,105.0,D,4.0,3.0,broom,3,,4078.0,spOspan.noVer,E7
1636,105.0,D,4.0,4.0,test,4,test,3579.0,spOspan.noVer,E7
1637,105.0,D,4.0,5.0,ground,5,,3119.0,spOspan.noVer,E7
1638,105.0,D,5.0,0.0,spice,0,spice,4155.0,spOspan.noVer,E7
1639,105.0,D,5.0,1.0,heat,1,heat,3199.0,spOspan.noVer,E7
1640,105.0,D,5.0,2.0,shape,2,,3554.0,spOspan.noVer,E7
1641,105.0,D,5.0,3.0,pear,3,guest,3102.0,spOspan.noVer,E7
1642,105.0,D,5.0,4.0,guest,,,3886.0,spOspan.noVer,E7
1643,105.0,D,6.0,0.0,toy,0,toy,3576.0,spOspan.noVer,E7
1644,105.0,D,6.0,1.0,wreck,1,wreck,3573.0,spOspan.noVer,E7
1645,105.0,D,6.0,2.0,frown,2,frown,3272.0,spOspan.noVer,E7
1646,105.0,D,7.0,0.0,rice,0,rice,3196.0,spOspan.noVer,E7
1647,105.0,D,7.0,1.0,cat,1,cat,2977.0,spOspan.noVer,E7
1648,105.0,D,7.0,2.0,trash,2,trash,3413.0,spOspan.noVer,E7
1649,105.0,D,8.0,0.0,coin,0,coin,3407.0,spOspan.noVer,E7
1650,105.0,D,8.0,1.0,film,1,film,3322.0,spOspan.noVer,E7
1651,105.0,D,8.0,2.0,leaf,2,tree,3328.0,spOspan.noVer,E7
1652,105.0,D,8.0,3.0,train,3,,3470.0,spOspan.noVer,E7
1653,105.0,D,8.0,4.0,map,4,art,3470.0,spOspan.noVer,E7
1654,105.0,D,8.0,5.0,art,,,3270.0,spOspan.noVer,E7
1655,105.0,D,9.0,0.0,deck,0,deck,3491.0,spOspan.noVer,E7
1656,105.0,D,9.0,1.0,slice,1,slice,3483.0,spOspan.noVer,E7
1657,105.0,D,9.0,2.0,rat,2,rat,3243.0,spOspan.noVer,E7
1658,105.0,D,10.0,0.0,mare,0,mare,3243.0,spOspan.noVer,E7
1659,105.0,D,10.0,1.0,bell,1,bell,3468.0,spOspan.noVer,E7
1660,105.0,D,10.0,2.0,brain,2,brain,2957.0,spOspan.noVer,E7
1661,105.0,D,10.0,3.0,beef,3,beef,3522.0,spOspan.noVer,E7
1662,105.0,D,11.0,0.0,chest,0,,3587.0,spOspan.noVer,E7
1663,105.0,D,11.0,1.0,lane,1,lane,3439.0,spOspan.noVer,E7
1664,105.0,D,11.0,2.0,hair,2,hair,3224.0,spOspan.noVer,E7
1665,105.0,D,11.0,3.0,crown,3,crown,3696.0,spOspan.noVer,E7
1666,105.0,D,12.0,0.0,beard,0,beard,3515.0,spOspan.noVer,E7
1667,105.0,D,12.0,1.0,hill,1,tree,3609.0,spOspan.noVer,E7
1668,105.0,D,12.0,2.0,dirt,2,hill,3252.0,spOspan.noVer,E7
1669,105.0,D,12.0,3.0,card,3,card,3422.0,spOspan.noVer,E7
1670,105.0,D,12.0,4.0,line,4,line,4264.0,spOspan.noVer,E7
1671,105.0,D,13.0,0.0,path,0,,3340.0,spOspan.noVer,E7
1672,105.0,D,13.0,1.0,nest,1,square,4002.0,spOspan.noVer,E7
1673,105.0,D,13.0,2.0,square,2,wood,3060.0,spOspan.noVer,E7
1674,105.0,D,13.0,3.0,wood,3,beach,3316.0,spOspan.noVer,E7
1675,105.0,D,13.0,4.0,beach,,,3331.0,spOspan.noVer,E7
1676,105.0,D,14.0,0.0,ant,0,air,3879.0,spOspan.noVer,E7
1677,105.0,D,14.0,1.0,air,1,art,3286.0,spOspan.noVer,E7
1678,105.0,D,14.0,2.0,ink,2,ink,3055.0,spOspan.noVer,E7
1679,105.0,D,14.0,3.0,cloud,3,,3343.0,spOspan.noVer,E7
1680,105.0,D,14.0,4.0,seat,4,seat,3485.0,spOspan.noVer,E7
1681,105.0,D,14.0,5.0,breath,5,breath,3292.0,spOspan.noVer,E7
1682,105.0,D,15.0,0.0,neck,0,neck,3290.0,spOspan.noVer,E7
1683,105.0,D,15.0,1.0,town,1,town,3194.0,spOspan.noVer,E7
1684,105.0,D,15.0,2.0,hat,2,hat,3213.0,spOspan.noVer,E7
1685,105.0,D,15.0,3.0,street,3,street,3631.0,spOspan.noVer,E7
1686,105.0,S,16.0,0.0,bread,0,bread,3144.0,spOspan.noVer,E7
1687,105.0,S,16.0,1.0,head,1,head,3174.0,spOspan.noVer,E7
1688,105.0,S,16.0,2.0,thread,2,thread,2963.0,spOspan.noVer,E7
1689,105.0,S,16.0,3.0,bed,3,bed,3207.0,spOspan.noVer,E7
1690,105.0,S,17.0,0.0,king,0,king,3310.0,spOspan.noVer,E7
1691,105.0,S,17.0,1.0,ring,1,ring,2925.0,spOspan.noVer,E7
1692,105.0,S,17.0,2.0,spring,2,string,3212.0,spOspan.noVer,E7
1693,105.0,S,17.0,3.0,string,3,,3630.0,spOspan.noVer,E7
1694,105.0,S,17.0,4.0,wing,4,wing,3416.0,spOspan.noVer,E7
1695,105.0,S,18.0,0.0,boot,0,boot,3042.0,spOspan.noVer,E7
1696,105.0,S,18.0,1.0,suit,1,suite,4980.0,spOspan.noVer,E7
1697,105.0,S,18.0,2.0,flute,2,flute,3143.0,spOspan.noVer,E7
1698,105.0,S,18.0,3.0,loot,3,loot,3316.0,spOspan.noVer,E7
1699,105.0,S,18.0,4.0,root,,,3290.0,spOspan.noVer,E7
1700,105.0,S,18.0,5.0,brute,,,3226.0,spOspan.noVer,E7
1701,105.0,S,19.0,0.0,deer,0,dear,4236.0,spOspan.noVer,E7
1702,105.0,S,19.0,1.0,sphere,1,sphere,3181.0,spOspan.noVer,E7
1703,105.0,S,19.0,2.0,ear,2,ear,3521.0,spOspan.noVer,E7
1704,105.0,S,19.0,3.0,tear,3,tear,3662.0,spOspan.noVer,E7
1705,105.0,S,20.0,0.0,cream,0,cream,3783.0,spOspan.noVer,E7
1706,105.0,S,20.0,1.0,team,1,team,3468.0,spOspan.noVer,E7
1707,105.0,S,20.0,2.0,steam,2,steam,3468.0,spOspan.noVer,E7
1708,105.0,S,21.0,0.0,doll,0,doll,3661.0,spOspan.noVer,E7
1709,105.0,S,21.0,1.0,ball,1,ball,3316.0,spOspan.noVer,E7
1710,105.0,S,21.0,2.0,shawl,2,shawl,3707.0,spOspan.noVer,E7
1711,105.0,S,21.0,3.0,hall,3,brawl,3363.0,spOspan.noVer,E7
1712,105.0,S,21.0,4.0,brawl,4,,3423.0,spOspan.noVer,E7
1713,105.0,S,21.0,5.0,wall,,,3250.0,spOspan.noVer,E7
1714,105.0,S,22.0,0.0,jar,0,jar,3684.0,spOspan.noVer,E7
1715,105.0,S,22.0,1.0,bar,1,car,4020.0,spOspan.noVer,E7
1716,105.0,S,22.0,2.0,car,2,bar,3509.0,spOspan.noVer,E7
1717,105.0,S,22.0,3.0,scar,3,star,3004.0,spOspan.noVer,E7
1718,105.0,S,22.0,4.0,star,4,scar,3198.0,spOspan.noVer,E7
1719,105.0,S,23.0,0.0,pie,0,pie,2892.0,spOspan.noVer,E7
1720,105.0,S,23.0,1.0,fly,1,fly,3197.0,spOspan.noVer,E7
1721,105.0,S,23.0,2.0,tie,2,sky,3096.0,spOspan.noVer,E7
1722,105.0,S,23.0,3.0,sky,3,eye,3568.0,spOspan.noVer,E7
1723,105.0,S,23.0,4.0,eye,,,3389.0,spOspan.noVer,E7
1724,105.0,S,24.0,0.0,mail,0,mail,3916.0,spOspan.noVer,E7
1725,105.0,S,24.0,1.0,sail,1,sail,3907.0,spOspan.noVer,E7
1726,105.0,S,24.0,2.0,trail,2,,4057.0,spOspan.noVer,E7
1727,105.0,S,24.0,3.0,wail,3,,3553.0,spOspan.noVer,E7
1728,105.0,S,24.0,4.0,tail,4,,4149.0,spOspan.noVer,E7
1729,105.0,S,24.0,5.0,jail,5,,3498.0,spOspan.noVer,E7
1730,105.0,S,25.0,0.0,band,0,band,4283.0,spOspan.noVer,E7
1731,105.0,S,25.0,1.0,land,1,land,4499.0,spOspan.noVer,E7
1732,105.0,S,25.0,2.0,stand,2,stand,3802.0,spOspan.noVer,E7
1733,105.0,S,25.0,3.0,hand,3,hand,4628.0,spOspan.noVer,E7
1734,105.0,S,26.0,0.0,blouse,0,blouse,3565.0,spOspan.noVer,E7
1735,105.0,S,26.0,1.0,house,1,house,4482.0,spOspan.noVer,E7
1736,105.0,S,26.0,2.0,mouse,2,mouse,3473.0,spOspan.noVer,E7
1737,105.0,S,27.0,0.0,bone,0,bone,3549.0,spOspan.noVer,E7
1738,105.0,S,27.0,1.0,phone,1,phone,4363.0,spOspan.noVer,E7
1739,105.0,S,27.0,2.0,stone,2,stone,4287.0,spOspan.noVer,E7
1740,106.0,P,0.0,0.0,hood,0,hood,,spOspan.noVer,E7
1741,106.0,P,0.0,1.0,wood,1,wood,,spOspan.noVer,E7
1742,106.0,P,1.0,0.0,earth,0,earth,,spOspan.noVer,E7
1743,106.0,P,1.0,1.0,peach,1,peach,,spOspan.noVer,E7
1744,106.0,P,2.0,0.0,farm,0,farm,,spOspan.noVer,E7
1745,106.0,P,2.0,1.0,arm,1,arm,,spOspan.noVer,E7
1746,106.0,P,3.0,0.0,bath,0,bath,,spOspan.noVer,E7
1747,106.0,P,3.0,1.0,dawn,1,dawn,,spOspan.noVer,E7
1748,106.0,D,4.0,0.0,path,0,path,3369.0,spOspan.noVer,E7
1749,106.0,D,4.0,1.0,nest,1,nest,2467.0,spOspan.noVer,E7
1750,106.0,D,4.0,2.0,square,2,square,2734.0,spOspan.noVer,E7
1751,106.0,D,4.0,3.0,wood,3,wood,2989.0,spOspan.noVer,E7
1752,106.0,D,4.0,4.0,beach,4,beach,3038.0,spOspan.noVer,E7
1753,106.0,D,5.0,0.0,beard,0,beard,3197.0,spOspan.noVer,E7
1754,106.0,D,5.0,1.0,hill,1,hill,2970.0,spOspan.noVer,E7
1755,106.0,D,5.0,2.0,dirt,2,dirt,3672.0,spOspan.noVer,E7
1756,106.0,D,5.0,3.0,card,3,card,6183.0,spOspan.noVer,E7
1757,106.0,D,5.0,4.0,line,4,line,3367.0,spOspan.noVer,E7
1758,106.0,D,6.0,0.0,rice,0,rice,2675.0,spOspan.noVer,E7
1759,106.0,D,6.0,1.0,cat,1,cat,2813.0,spOspan.noVer,E7
1760,106.0,D,6.0,2.0,trash,2,trash,3561.0,spOspan.noVer,E7
1761,106.0,D,7.0,0.0,spice,0,spice,2595.0,spOspan.noVer,E7
1762,106.0,D,7.0,1.0,heat,1,heat,2783.0,spOspan.noVer,E7
1763,106.0,D,7.0,2.0,shape,2,shape,3197.0,spOspan.noVer,E7
1764,106.0,D,7.0,3.0,pear,3,pear,3504.0,spOspan.noVer,E7
1765,106.0,D,7.0,4.0,guest,4,guest,4079.0,spOspan.noVer,E7
1766,106.0,D,8.0,0.0,ant,0,ant,2457.0,spOspan.noVer,E7
1767,106.0,D,8.0,1.0,air,1,air,2517.0,spOspan.noVer,E7
1768,106.0,D,8.0,2.0,ink,2,ink,3307.0,spOspan.noVer,E7
1769,106.0,D,8.0,3.0,cloud,3,cloud,3139.0,spOspan.noVer,E7
1770,106.0,D,8.0,4.0,seat,4,seat,5800.0,spOspan.noVer,E7
1771,106.0,D,8.0,5.0,breath,,,2712.0,spOspan.noVer,E7
1772,106.0,D,9.0,0.0,toy,0,toy,16380.0,spOspan.noVer,E7
1773,106.0,D,9.0,1.0,wreck,1,wreck,2598.0,spOspan.noVer,E7
1774,106.0,D,9.0,2.0,frown,2,frown,5313.0,spOspan.noVer,E7
1775,106.0,D,10.0,0.0,neck,0,neck,2627.0,spOspan.noVer,E7
1776,106.0,D,10.0,1.0,town,1,town,2504.0,spOspan.noVer,E7
1777,106.0,D,10.0,2.0,hat,2,hat,6862.0,spOspan.noVer,E7
1778,106.0,D,10.0,3.0,street,3,street,4435.0,spOspan.noVer,E7
1779,106.0,D,11.0,0.0,coin,0,one,3078.0,spOspan.noVer,E7
1780,106.0,D,11.0,1.0,film,1,film,2759.0,spOspan.noVer,E7
1781,106.0,D,11.0,2.0,leaf,2,leaf,4516.0,spOspan.noVer,E7
1782,106.0,D,11.0,3.0,train,3,train,5065.0,spOspan.noVer,E7
1783,106.0,D,11.0,4.0,map,4,map,4384.0,spOspan.noVer,E7
1784,106.0,D,11.0,5.0,art,5,art,5242.0,spOspan.noVer,E7
1785,106.0,D,12.0,0.0,deck,0,deck,2907.0,spOspan.noVer,E7
1786,106.0,D,12.0,1.0,slice,1,slice,2458.0,spOspan.noVer,E7
1787,106.0,D,12.0,2.0,rat,2,rat,4212.0,spOspan.noVer,E7
1788,106.0,D,13.0,0.0,chest,0,chest,2431.0,spOspan.noVer,E7
1789,106.0,D,13.0,1.0,lane,1,lane,2377.0,spOspan.noVer,E7
1790,106.0,D,13.0,2.0,hair,2,hair,4055.0,spOspan.noVer,E7
1791,106.0,D,13.0,3.0,crown,3,crown,3976.0,spOspan.noVer,E7
1792,106.0,D,14.0,0.0,mare,0,mare,2918.0,spOspan.noVer,E7
1793,106.0,D,14.0,1.0,bell,1,bell,3045.0,spOspan.noVer,E7
1794,106.0,D,14.0,2.0,brain,2,brain,2967.0,spOspan.noVer,E7
1795,106.0,D,14.0,3.0,beef,3,beaf,3467.0,spOspan.noVer,E7
1796,106.0,D,15.0,0.0,shell,0,shell,2712.0,spOspan.noVer,E7
1797,106.0,D,15.0,1.0,tree,1,tree,3639.0,spOspan.noVer,E7
