,Subject,trialtype,trialnum,TBR,inpos,outpos,resp,dist_RT,task,folder
0,100.0,P,0.0,farm,0.0,0,farm,17454.0,Rspan.names.long,E11names
1,100.0,P,0.0,arm,1.0,,,8346.0,Rspan.names.long,E11names
2,100.0,P,1.0,hood,0.0,0,hood,22797.0,Rspan.names.long,E11names
3,100.0,P,1.0,wood,1.0,1,wood,7526.0,Rspan.names.long,E11names
4,100.0,P,2.0,bath,0.0,0,bath,7660.0,Rspan.names.long,E11names
5,100.0,P,2.0,dawn,1.0,1,dawn,7322.0,Rspan.names.long,E11names
6,100.0,P,3.0,earth,0.0,0,earth,9241.0,Rspan.names.long,E11names
7,100.0,P,3.0,peach,1.0,1,peach,7246.0,Rspan.names.long,E11names
8,100.0,D,4.0,neck,0.0,0,,7134.0,Rspan.names.long,E11names
9,100.0,D,4.0,town,1.0,1,,7632.0,Rspan.names.long,E11names
10,100.0,D,4.0,hat,2.0,2,town,7686.0,Rspan.names.long,E11names
11,100.0,D,4.0,street,3.0,3,street,8521.0,Rspan.names.long,E11names
12,100.0,S,5.0,bone,0.0,0,bone,6047.0,Rspan.names.long,E11names
13,100.0,S,5.0,phone,1.0,1,phone,7471.0,Rspan.names.long,E11names
14,100.0,S,5.0,stone,2.0,2,stone,8673.0,Rspan.names.long,E11names
15,100.0,D,6.0,coin,0.0,0,coin,8598.0,Rspan.names.long,E11names
16,100.0,D,6.0,film,1.0,1,film,8413.0,Rspan.names.long,E11names
17,100.0,D,6.0,leaf,2.0,2,leaf,9010.0,Rspan.names.long,E11names
18,100.0,D,6.0,train,3.0,3,map,8599.0,Rspan.names.long,E11names
19,100.0,D,6.0,map,4.0,4,art,7774.0,Rspan.names.long,E11names
20,100.0,D,6.0,art,5.0,,,7789.0,Rspan.names.long,E11names
21,100.0,D,7.0,path,0.0,0,nest,200.0,Rspan.names.long,E11names
22,100.0,D,7.0,nest,1.0,1,square,6262.0,Rspan.names.long,E11names
23,100.0,D,7.0,square,2.0,2,wood,8485.0,Rspan.names.long,E11names
24,100.0,D,7.0,wood,3.0,3,,8081.0,Rspan.names.long,E11names
25,100.0,D,7.0,beach,4.0,,,7947.0,Rspan.names.long,E11names
26,100.0,D,8.0,rice,0.0,0,rice,8073.0,Rspan.names.long,E11names
27,100.0,D,8.0,cat,1.0,1,cat,7268.0,Rspan.names.long,E11names
28,100.0,D,8.0,trash,2.0,2,trash,8135.0,Rspan.names.long,E11names
29,100.0,S,9.0,bread,0.0,0,bread,6477.0,Rspan.names.long,E11names
30,100.0,S,9.0,head,1.0,1,head,7305.0,Rspan.names.long,E11names
31,100.0,S,9.0,thread,2.0,2,thread,8908.0,Rspan.names.long,E11names
32,100.0,S,9.0,bed,3.0,3,bed,8669.0,Rspan.names.long,E11names
33,100.0,S,10.0,king,0.0,0,king,6217.0,Rspan.names.long,E11names
34,100.0,S,10.0,ring,1.0,1,ring,7615.0,Rspan.names.long,E11names
35,100.0,S,10.0,spring,2.0,2,spring,6773.0,Rspan.names.long,E11names
36,100.0,S,10.0,string,3.0,3,string,6878.0,Rspan.names.long,E11names
37,100.0,S,10.0,wing,4.0,,,6834.0,Rspan.names.long,E11names
38,100.0,S,11.0,doll,0.0,0,doll,6816.0,Rspan.names.long,E11names
39,100.0,S,11.0,ball,1.0,1,ball,7264.0,Rspan.names.long,E11names
40,100.0,S,11.0,shawl,2.0,2,,6781.0,Rspan.names.long,E11names
41,100.0,S,11.0,hall,3.0,3,shawl,9997.0,Rspan.names.long,E11names
42,100.0,S,11.0,brawl,4.0,,,7834.0,Rspan.names.long,E11names
43,100.0,S,11.0,wall,5.0,,,8263.0,Rspan.names.long,E11names
44,100.0,S,12.0,jar,0.0,0,jar,6652.0,Rspan.names.long,E11names
45,100.0,S,12.0,bar,1.0,1,bar,8211.0,Rspan.names.long,E11names
46,100.0,S,12.0,car,2.0,2,car,7896.0,Rspan.names.long,E11names
47,100.0,S,12.0,scar,3.0,3,scar,7915.0,Rspan.names.long,E11names
48,100.0,S,12.0,star,4.0,4,,7685.0,Rspan.names.long,E11names
49,100.0,S,13.0,cream,0.0,0,cream,7516.0,Rspan.names.long,E11names
50,100.0,S,13.0,team,1.0,1,team,7447.0,Rspan.names.long,E11names
51,100.0,S,13.0,steam,2.0,2,steam,8692.0,Rspan.names.long,E11names
52,100.0,D,14.0,ant,0.0,0,,6526.0,Rspan.names.long,E11names
53,100.0,D,14.0,air,1.0,1,,8017.0,Rspan.names.long,E11names
54,100.0,D,14.0,ink,2.0,2,cloud,8119.0,Rspan.names.long,E11names
55,100.0,D,14.0,cloud,3.0,3,ink,9240.0,Rspan.names.long,E11names
56,100.0,D,14.0,seat,4.0,4,,8619.0,Rspan.names.long,E11names
57,100.0,D,14.0,breath,5.0,,,7928.0,Rspan.names.long,E11names
58,100.0,S,15.0,boot,0.0,0,boot,7802.0,Rspan.names.long,E11names
59,100.0,S,15.0,suit,1.0,1,,8186.0,Rspan.names.long,E11names
60,100.0,S,15.0,flute,2.0,2,flute,9368.0,Rspan.names.long,E11names
61,100.0,S,15.0,loot,3.0,,,7918.0,Rspan.names.long,E11names
62,100.0,S,15.0,root,4.0,,,7743.0,Rspan.names.long,E11names
63,100.0,S,15.0,brute,5.0,,,9993.0,Rspan.names.long,E11names
64,100.0,D,16.0,spice,0.0,0,spice,7068.0,Rspan.names.long,E11names
65,100.0,D,16.0,heat,1.0,1,heat,8673.0,Rspan.names.long,E11names
66,100.0,D,16.0,shape,2.0,2,,10603.0,Rspan.names.long,E11names
67,100.0,D,16.0,pear,3.0,3,pear,10503.0,Rspan.names.long,E11names
68,100.0,D,16.0,guest,4.0,4,guest,8382.0,Rspan.names.long,E11names
69,100.0,S,17.0,deer,0.0,0,deer,8275.0,Rspan.names.long,E11names
70,100.0,S,17.0,sphere,1.0,1,sphere,8799.0,Rspan.names.long,E11names
71,100.0,S,17.0,ear,2.0,2,,9324.0,Rspan.names.long,E11names
72,100.0,S,17.0,tear,3.0,3,tear,9500.0,Rspan.names.long,E11names
73,100.0,D,18.0,toy,0.0,0,toy,7592.0,Rspan.names.long,E11names
74,100.0,D,18.0,wreck,1.0,1,wreck,8295.0,Rspan.names.long,E11names
75,100.0,D,18.0,frown,2.0,2,frown,7905.0,Rspan.names.long,E11names
76,100.0,D,19.0,chest,0.0,0,chest,6351.0,Rspan.names.long,E11names
77,100.0,D,19.0,lane,1.0,1,lane,6497.0,Rspan.names.long,E11names
78,100.0,D,19.0,hair,2.0,2,hair,8997.0,Rspan.names.long,E11names
79,100.0,D,19.0,crown,3.0,3,crown,8195.0,Rspan.names.long,E11names
80,100.0,S,20.0,pie,0.0,0,,6876.0,Rspan.names.long,E11names
81,100.0,S,20.0,fly,1.0,1,sky,7048.0,Rspan.names.long,E11names
82,100.0,S,20.0,tie,2.0,2,tie,8918.0,Rspan.names.long,E11names
83,100.0,S,20.0,sky,3.0,3,,8846.0,Rspan.names.long,E11names
84,100.0,S,20.0,eye,4.0,4,,7370.0,Rspan.names.long,E11names
85,100.0,D,21.0,beard,0.0,0,beard,8295.0,Rspan.names.long,E11names
86,100.0,D,21.0,hill,1.0,1,,7241.0,Rspan.names.long,E11names
87,100.0,D,21.0,dirt,2.0,2,card,7751.0,Rspan.names.long,E11names
88,100.0,D,21.0,card,3.0,3,line,6775.0,Rspan.names.long,E11names
89,100.0,D,21.0,line,4.0,,,9095.0,Rspan.names.long,E11names
90,100.0,D,22.0,shell,0.0,0,,7240.0,Rspan.names.long,E11names
91,100.0,D,22.0,tree,1.0,1,,9165.0,Rspan.names.long,E11names
92,100.0,D,22.0,bowl,2.0,2,,8716.0,Rspan.names.long,E11names
93,100.0,D,22.0,broom,3.0,3,,10285.0,Rspan.names.long,E11names
94,100.0,D,22.0,test,4.0,4,test,7390.0,Rspan.names.long,E11names
95,100.0,D,22.0,ground,5.0,5,ground,7516.0,Rspan.names.long,E11names
96,100.0,S,23.0,band,0.0,0,band,6518.0,Rspan.names.long,E11names
97,100.0,S,23.0,land,1.0,1,land,9696.0,Rspan.names.long,E11names
98,100.0,S,23.0,stand,2.0,2,sand,9385.0,Rspan.names.long,E11names
99,100.0,S,23.0,hand,3.0,3,hand,8958.0,Rspan.names.long,E11names
100,100.0,D,24.0,mare,0.0,0,mare,7979.0,Rspan.names.long,E11names
101,100.0,D,24.0,bell,1.0,1,,8571.0,Rspan.names.long,E11names
102,100.0,D,24.0,brain,2.0,2,brain,10202.0,Rspan.names.long,E11names
103,100.0,D,24.0,beef,3.0,3,beef,9078.0,Rspan.names.long,E11names
104,100.0,S,25.0,blouse,0.0,0,blouse,6123.0,Rspan.names.long,E11names
105,100.0,S,25.0,house,1.0,1,house,8120.0,Rspan.names.long,E11names
106,100.0,S,25.0,mouse,2.0,2,mouse,8209.0,Rspan.names.long,E11names
107,100.0,D,26.0,deck,0.0,0,deck,5941.0,Rspan.names.long,E11names
108,100.0,D,26.0,slice,1.0,1,slice,9183.0,Rspan.names.long,E11names
109,100.0,D,26.0,rat,2.0,2,rat,9903.0,Rspan.names.long,E11names
110,100.0,S,27.0,mail,0.0,0,mail,5817.0,Rspan.names.long,E11names
111,100.0,S,27.0,sail,1.0,1,sail,7161.0,Rspan.names.long,E11names
112,100.0,S,27.0,trail,2.0,2,,9793.0,Rspan.names.long,E11names
113,100.0,S,27.0,wail,3.0,3,wail,9159.0,Rspan.names.long,E11names
114,100.0,S,27.0,tail,4.0,4,jail,8686.0,Rspan.names.long,E11names
115,100.0,S,27.0,jail,5.0,,,9953.0,Rspan.names.long,E11names
116,101.0,P,0.0,farm,0.0,0,farm,14527.0,Rspan.names.long,E11names
117,101.0,P,0.0,arm,1.0,1,arm,6602.0,Rspan.names.long,E11names
118,101.0,P,1.0,earth,0.0,0,earth,5595.0,Rspan.names.long,E11names
119,101.0,P,1.0,peach,1.0,1,peach,5332.0,Rspan.names.long,E11names
120,101.0,P,2.0,bath,0.0,0,bath,5420.0,Rspan.names.long,E11names
121,101.0,P,2.0,dawn,1.0,1,dawn,5972.0,Rspan.names.long,E11names
122,101.0,P,3.0,hood,0.0,0,hood,5477.0,Rspan.names.long,E11names
123,101.0,P,3.0,wood,1.0,1,wood,5731.0,Rspan.names.long,E11names
124,101.0,S,4.0,bread,0.0,0,bread,5189.0,Rspan.names.long,E11names
125,101.0,S,4.0,head,1.0,1,head,4974.0,Rspan.names.long,E11names
126,101.0,S,4.0,thread,2.0,2,thread,4657.0,Rspan.names.long,E11names
127,101.0,S,4.0,bed,3.0,3,bed,4800.0,Rspan.names.long,E11names
128,101.0,S,5.0,doll,0.0,0,doll,5796.0,Rspan.names.long,E11names
129,101.0,S,5.0,ball,1.0,1,ball,4821.0,Rspan.names.long,E11names
130,101.0,S,5.0,shawl,2.0,2,shawl,5550.0,Rspan.names.long,E11names
131,101.0,S,5.0,hall,3.0,3,hall,6208.0,Rspan.names.long,E11names
132,101.0,S,5.0,brawl,4.0,,,5536.0,Rspan.names.long,E11names
133,101.0,S,5.0,wall,5.0,,,5115.0,Rspan.names.long,E11names
134,101.0,S,6.0,king,0.0,0,king,4980.0,Rspan.names.long,E11names
135,101.0,S,6.0,ring,1.0,1,ring,5199.0,Rspan.names.long,E11names
136,101.0,S,6.0,spring,2.0,2,spring,6184.0,Rspan.names.long,E11names
137,101.0,S,6.0,string,3.0,3,,5954.0,Rspan.names.long,E11names
138,101.0,S,6.0,wing,4.0,,,6140.0,Rspan.names.long,E11names
139,101.0,D,7.0,rice,0.0,0,rice,4927.0,Rspan.names.long,E11names
140,101.0,D,7.0,cat,1.0,1,cat,5372.0,Rspan.names.long,E11names
141,101.0,D,7.0,trash,2.0,2,trash,6553.0,Rspan.names.long,E11names
142,101.0,D,8.0,coin,0.0,0,film,7312.0,Rspan.names.long,E11names
143,101.0,D,8.0,film,1.0,1,coin,5099.0,Rspan.names.long,E11names
144,101.0,D,8.0,leaf,2.0,2,earth,5200.0,Rspan.names.long,E11names
145,101.0,D,8.0,train,3.0,,,6736.0,Rspan.names.long,E11names
146,101.0,D,8.0,map,4.0,,,5018.0,Rspan.names.long,E11names
147,101.0,D,8.0,art,5.0,,,4778.0,Rspan.names.long,E11names
148,101.0,S,9.0,blouse,0.0,0,blouse,5398.0,Rspan.names.long,E11names
149,101.0,S,9.0,house,1.0,1,house,5463.0,Rspan.names.long,E11names
150,101.0,S,9.0,mouse,2.0,2,mous,6541.0,Rspan.names.long,E11names
151,101.0,D,10.0,neck,0.0,0,neck,6047.0,Rspan.names.long,E11names
152,101.0,D,10.0,town,1.0,1,town,4685.0,Rspan.names.long,E11names
153,101.0,D,10.0,hat,2.0,2,hat,7123.0,Rspan.names.long,E11names
154,101.0,D,10.0,street,3.0,3,street,6510.0,Rspan.names.long,E11names
155,101.0,D,11.0,path,0.0,0,path,4634.0,Rspan.names.long,E11names
156,101.0,D,11.0,nest,1.0,1,nest,5290.0,Rspan.names.long,E11names
157,101.0,D,11.0,square,2.0,2,,6312.0,Rspan.names.long,E11names
158,101.0,D,11.0,wood,3.0,3,,6979.0,Rspan.names.long,E11names
159,101.0,D,11.0,beach,4.0,4,,7684.0,Rspan.names.long,E11names
160,101.0,D,12.0,toy,0.0,0,toy,4914.0,Rspan.names.long,E11names
161,101.0,D,12.0,wreck,1.0,1,neck,5639.0,Rspan.names.long,E11names
162,101.0,D,12.0,frown,2.0,2,frown,5206.0,Rspan.names.long,E11names
163,101.0,S,13.0,bone,0.0,0,bone,5395.0,Rspan.names.long,E11names
164,101.0,S,13.0,phone,1.0,1,phone,5028.0,Rspan.names.long,E11names
165,101.0,S,13.0,stone,2.0,2,stone,4429.0,Rspan.names.long,E11names
166,101.0,S,14.0,boot,0.0,0,boot,4621.0,Rspan.names.long,E11names
167,101.0,S,14.0,suit,1.0,1,flute,4430.0,Rspan.names.long,E11names
168,101.0,S,14.0,flute,2.0,2,suit,4839.0,Rspan.names.long,E11names
169,101.0,S,14.0,loot,3.0,3,,6974.0,Rspan.names.long,E11names
170,101.0,S,14.0,root,4.0,4,loot,5111.0,Rspan.names.long,E11names
171,101.0,S,14.0,brute,5.0,5,brute,4532.0,Rspan.names.long,E11names
172,101.0,S,15.0,jar,0.0,0,jar,4775.0,Rspan.names.long,E11names
173,101.0,S,15.0,bar,1.0,1,bar,4706.0,Rspan.names.long,E11names
174,101.0,S,15.0,car,2.0,2,car,4951.0,Rspan.names.long,E11names
175,101.0,S,15.0,scar,3.0,3,star,5586.0,Rspan.names.long,E11names
176,101.0,S,15.0,star,4.0,,,6315.0,Rspan.names.long,E11names
177,101.0,S,16.0,deer,0.0,0,deer,5509.0,Rspan.names.long,E11names
178,101.0,S,16.0,sphere,1.0,1,sphere,5409.0,Rspan.names.long,E11names
179,101.0,S,16.0,ear,2.0,2,,4658.0,Rspan.names.long,E11names
180,101.0,S,16.0,tear,3.0,3,ear,4857.0,Rspan.names.long,E11names
181,101.0,D,17.0,chest,0.0,0,chest,4228.0,Rspan.names.long,E11names
182,101.0,D,17.0,lane,1.0,1,lane,4981.0,Rspan.names.long,E11names
183,101.0,D,17.0,hair,2.0,2,hair,5783.0,Rspan.names.long,E11names
184,101.0,D,17.0,crown,3.0,3,crown,5624.0,Rspan.names.long,E11names
185,101.0,D,18.0,ant,0.0,0,,4772.0,Rspan.names.long,E11names
186,101.0,D,18.0,air,1.0,1,,5247.0,Rspan.names.long,E11names
187,101.0,D,18.0,ink,2.0,2,,6230.0,Rspan.names.long,E11names
188,101.0,D,18.0,cloud,3.0,3,ink,5637.0,Rspan.names.long,E11names
189,101.0,D,18.0,seat,4.0,4,cloud,5004.0,Rspan.names.long,E11names
190,101.0,D,18.0,breath,5.0,5,,4589.0,Rspan.names.long,E11names
191,101.0,D,19.0,spice,0.0,0,spice,4646.0,Rspan.names.long,E11names
192,101.0,D,19.0,heat,1.0,1,heat,4998.0,Rspan.names.long,E11names
193,101.0,D,19.0,shape,2.0,2,,5167.0,Rspan.names.long,E11names
194,101.0,D,19.0,pear,3.0,3,guest,5921.0,Rspan.names.long,E11names
195,101.0,D,19.0,guest,4.0,,,4549.0,Rspan.names.long,E11names
196,101.0,S,20.0,pie,0.0,0,pie,4694.0,Rspan.names.long,E11names
197,101.0,S,20.0,fly,1.0,1,fly,4500.0,Rspan.names.long,E11names
198,101.0,S,20.0,tie,2.0,2,tie,4914.0,Rspan.names.long,E11names
199,101.0,S,20.0,sky,3.0,3,sky,5486.0,Rspan.names.long,E11names
200,101.0,S,20.0,eye,4.0,4,eye,7859.0,Rspan.names.long,E11names
201,101.0,S,21.0,mail,0.0,0,mail,4623.0,Rspan.names.long,E11names
202,101.0,S,21.0,sail,1.0,1,sail,5242.0,Rspan.names.long,E11names
203,101.0,S,21.0,trail,2.0,2,trail,4642.0,Rspan.names.long,E11names
204,101.0,S,21.0,wail,3.0,3,wail,5410.0,Rspan.names.long,E11names
205,101.0,S,21.0,tail,4.0,4,tail,7618.0,Rspan.names.long,E11names
206,101.0,S,21.0,jail,5.0,,,6832.0,Rspan.names.long,E11names
207,101.0,D,22.0,beard,0.0,0,beard,4896.0,Rspan.names.long,E11names
208,101.0,D,22.0,hill,1.0,1,hill,4638.0,Rspan.names.long,E11names
209,101.0,D,22.0,dirt,2.0,2,dirt,5582.0,Rspan.names.long,E11names
210,101.0,D,22.0,card,3.0,3,card,6567.0,Rspan.names.long,E11names
211,101.0,D,22.0,line,4.0,4,line,7248.0,Rspan.names.long,E11names
212,101.0,S,23.0,band,0.0,0,band,4557.0,Rspan.names.long,E11names
213,101.0,S,23.0,land,1.0,1,land,4888.0,Rspan.names.long,E11names
214,101.0,S,23.0,stand,2.0,2,stand,4926.0,Rspan.names.long,E11names
215,101.0,S,23.0,hand,3.0,3,hand,7730.0,Rspan.names.long,E11names
216,101.0,D,24.0,deck,0.0,0,deck,4384.0,Rspan.names.long,E11names
217,101.0,D,24.0,slice,1.0,1,slice,4746.0,Rspan.names.long,E11names
218,101.0,D,24.0,rat,2.0,2,rat,6086.0,Rspan.names.long,E11names
219,101.0,D,25.0,shell,0.0,0,shell,4165.0,Rspan.names.long,E11names
220,101.0,D,25.0,tree,1.0,1,tree,4952.0,Rspan.names.long,E11names
221,101.0,D,25.0,bowl,2.0,2,bowl,4795.0,Rspan.names.long,E11names
222,101.0,D,25.0,broom,3.0,3,broom,5173.0,Rspan.names.long,E11names
223,101.0,D,25.0,test,4.0,4,test,5495.0,Rspan.names.long,E11names
224,101.0,D,25.0,ground,5.0,5,ground,6716.0,Rspan.names.long,E11names
225,101.0,S,26.0,cream,0.0,0,cream,5134.0,Rspan.names.long,E11names
226,101.0,S,26.0,team,1.0,1,team,4658.0,Rspan.names.long,E11names
227,101.0,S,26.0,steam,2.0,2,steam,6425.0,Rspan.names.long,E11names
228,101.0,D,27.0,mare,0.0,0,mare,4392.0,Rspan.names.long,E11names
229,101.0,D,27.0,bell,1.0,1,bell,5770.0,Rspan.names.long,E11names
230,101.0,D,27.0,brain,2.0,2,brain,5676.0,Rspan.names.long,E11names
231,101.0,D,27.0,beef,3.0,3,beef,5553.0,Rspan.names.long,E11names
232,102.0,P,0.0,bath,0.0,0,bath,8471.0,Rspan.names.long,E11names
233,102.0,P,0.0,dawn,1.0,1,dawn,14914.0,Rspan.names.long,E11names
234,102.0,P,1.0,farm,0.0,0,farm,15440.0,Rspan.names.long,E11names
235,102.0,P,1.0,arm,1.0,1,arm,7975.0,Rspan.names.long,E11names
236,102.0,P,2.0,earth,0.0,0,earth,7615.0,Rspan.names.long,E11names
237,102.0,P,2.0,peach,1.0,1,peach,7525.0,Rspan.names.long,E11names
238,102.0,P,3.0,hood,0.0,0,hood,7875.0,Rspan.names.long,E11names
239,102.0,P,3.0,wood,1.0,1,wood,7103.0,Rspan.names.long,E11names
240,102.0,S,4.0,king,0.0,0,king,9993.0,Rspan.names.long,E11names
241,102.0,S,4.0,ring,1.0,1,ring,6703.0,Rspan.names.long,E11names
242,102.0,S,4.0,spring,2.0,2,spring,7298.0,Rspan.names.long,E11names
243,102.0,S,4.0,string,3.0,3,,6790.0,Rspan.names.long,E11names
244,102.0,S,4.0,wing,4.0,4,,6901.0,Rspan.names.long,E11names
245,102.0,D,5.0,path,0.0,0,path,7210.0,Rspan.names.long,E11names
246,102.0,D,5.0,nest,1.0,1,nest,6895.0,Rspan.names.long,E11names
247,102.0,D,5.0,square,2.0,2,,6412.0,Rspan.names.long,E11names
248,102.0,D,5.0,wood,3.0,3,wood,7428.0,Rspan.names.long,E11names
249,102.0,D,5.0,beach,4.0,4,beach,6634.0,Rspan.names.long,E11names
250,102.0,S,6.0,cream,0.0,0,cream,6597.0,Rspan.names.long,E11names
251,102.0,S,6.0,team,1.0,1,team,6548.0,Rspan.names.long,E11names
252,102.0,S,6.0,steam,2.0,2,steam,5959.0,Rspan.names.long,E11names
253,102.0,D,7.0,rice,0.0,0,rice,6454.0,Rspan.names.long,E11names
254,102.0,D,7.0,cat,1.0,1,cat,6626.0,Rspan.names.long,E11names
255,102.0,D,7.0,trash,2.0,2,trash,7002.0,Rspan.names.long,E11names
256,102.0,D,8.0,neck,0.0,0,,7453.0,Rspan.names.long,E11names
257,102.0,D,8.0,town,1.0,1,,6930.0,Rspan.names.long,E11names
258,102.0,D,8.0,hat,2.0,2,town,6876.0,Rspan.names.long,E11names
259,102.0,D,8.0,street,3.0,3,street,7513.0,Rspan.names.long,E11names
260,102.0,S,9.0,doll,0.0,0,doll,7176.0,Rspan.names.long,E11names
261,102.0,S,9.0,ball,1.0,1,,6752.0,Rspan.names.long,E11names
262,102.0,S,9.0,shawl,2.0,2,shawl,6401.0,Rspan.names.long,E11names
263,102.0,S,9.0,hall,3.0,3,wall,6681.0,Rspan.names.long,E11names
264,102.0,S,9.0,brawl,4.0,4,brawl,6981.0,Rspan.names.long,E11names
265,102.0,S,9.0,wall,5.0,5,,6806.0,Rspan.names.long,E11names
266,102.0,S,10.0,bread,0.0,0,bread,7789.0,Rspan.names.long,E11names
267,102.0,S,10.0,head,1.0,1,,6460.0,Rspan.names.long,E11names
268,102.0,S,10.0,thread,2.0,2,head,6770.0,Rspan.names.long,E11names
269,102.0,S,10.0,bed,3.0,3,bed,6554.0,Rspan.names.long,E11names
270,102.0,D,11.0,coin,0.0,0,coin,7390.0,Rspan.names.long,E11names
271,102.0,D,11.0,film,1.0,1,film,6725.0,Rspan.names.long,E11names
272,102.0,D,11.0,leaf,2.0,2,leaf,7182.0,Rspan.names.long,E11names
273,102.0,D,11.0,train,3.0,3,town,7049.0,Rspan.names.long,E11names
274,102.0,D,11.0,map,4.0,4,map,7375.0,Rspan.names.long,E11names
275,102.0,D,11.0,art,5.0,5,,7007.0,Rspan.names.long,E11names
276,102.0,S,12.0,blouse,0.0,0,blouse,7109.0,Rspan.names.long,E11names
277,102.0,S,12.0,house,1.0,1,house,6688.0,Rspan.names.long,E11names
278,102.0,S,12.0,mouse,2.0,2,mouse,7043.0,Rspan.names.long,E11names
279,102.0,D,13.0,toy,0.0,0,toy,6690.0,Rspan.names.long,E11names
280,102.0,D,13.0,wreck,1.0,1,wreck,6326.0,Rspan.names.long,E11names
281,102.0,D,13.0,frown,2.0,2,frown,6633.0,Rspan.names.long,E11names
282,102.0,S,14.0,deer,0.0,0,deer,6763.0,Rspan.names.long,E11names
283,102.0,S,14.0,sphere,1.0,1,sphere,6844.0,Rspan.names.long,E11names
284,102.0,S,14.0,ear,2.0,2,ear,6810.0,Rspan.names.long,E11names
285,102.0,S,14.0,tear,3.0,3,tear,7129.0,Rspan.names.long,E11names
286,102.0,S,15.0,boot,0.0,0,suit,6810.0,Rspan.names.long,E11names
287,102.0,S,15.0,suit,1.0,1,boot,6738.0,Rspan.names.long,E11names
288,102.0,S,15.0,flute,2.0,2,,6580.0,Rspan.names.long,E11names
289,102.0,S,15.0,loot,3.0,3,loot,7252.0,Rspan.names.long,E11names
290,102.0,S,15.0,root,4.0,4,,6617.0,Rspan.names.long,E11names
291,102.0,S,15.0,brute,5.0,5,,7904.0,Rspan.names.long,E11names
292,102.0,S,16.0,jar,0.0,0,jar,7463.0,Rspan.names.long,E11names
293,102.0,S,16.0,bar,1.0,1,bar,7052.0,Rspan.names.long,E11names
294,102.0,S,16.0,car,2.0,2,car,6625.0,Rspan.names.long,E11names
295,102.0,S,16.0,scar,3.0,3,star,6631.0,Rspan.names.long,E11names
296,102.0,S,16.0,star,4.0,,,6902.0,Rspan.names.long,E11names
297,102.0,D,17.0,spice,0.0,0,spice,6904.0,Rspan.names.long,E11names
298,102.0,D,17.0,heat,1.0,1,heat,6643.0,Rspan.names.long,E11names
299,102.0,D,17.0,shape,2.0,2,,6497.0,Rspan.names.long,E11names
300,102.0,D,17.0,pear,3.0,3,,7253.0,Rspan.names.long,E11names
301,102.0,D,17.0,guest,4.0,4,pear,6530.0,Rspan.names.long,E11names
302,102.0,D,18.0,chest,0.0,0,chest,7263.0,Rspan.names.long,E11names
303,102.0,D,18.0,lane,1.0,1,lane,6835.0,Rspan.names.long,E11names
304,102.0,D,18.0,hair,2.0,2,hair,7368.0,Rspan.names.long,E11names
305,102.0,D,18.0,crown,3.0,3,crown,6961.0,Rspan.names.long,E11names
306,102.0,D,19.0,ant,0.0,0,ant,6804.0,Rspan.names.long,E11names
307,102.0,D,19.0,air,1.0,1,air,6331.0,Rspan.names.long,E11names
308,102.0,D,19.0,ink,2.0,2,cloud,6701.0,Rspan.names.long,E11names
309,102.0,D,19.0,cloud,3.0,3,seat,7040.0,Rspan.names.long,E11names
310,102.0,D,19.0,seat,4.0,4,,6790.0,Rspan.names.long,E11names
311,102.0,D,19.0,breath,5.0,,,7478.0,Rspan.names.long,E11names
312,102.0,D,20.0,deck,0.0,0,,6886.0,Rspan.names.long,E11names
313,102.0,D,20.0,slice,1.0,1,,6507.0,Rspan.names.long,E11names
314,102.0,D,20.0,rat,2.0,2,rat,6686.0,Rspan.names.long,E11names
315,102.0,D,21.0,shell,0.0,0,shell,6984.0,Rspan.names.long,E11names
316,102.0,D,21.0,tree,1.0,1,tree,6816.0,Rspan.names.long,E11names
317,102.0,D,21.0,bowl,2.0,2,,6807.0,Rspan.names.long,E11names
318,102.0,D,21.0,broom,3.0,3,,6389.0,Rspan.names.long,E11names
319,102.0,D,21.0,test,4.0,4,test,7278.0,Rspan.names.long,E11names
320,102.0,D,21.0,ground,5.0,5,,6802.0,Rspan.names.long,E11names
321,102.0,S,22.0,bone,0.0,0,bone,7050.0,Rspan.names.long,E11names
322,102.0,S,22.0,phone,1.0,1,phone,6719.0,Rspan.names.long,E11names
323,102.0,S,22.0,stone,2.0,2,stone,6802.0,Rspan.names.long,E11names
324,102.0,D,23.0,beard,0.0,0,beard,6897.0,Rspan.names.long,E11names
325,102.0,D,23.0,hill,1.0,1,hill,7213.0,Rspan.names.long,E11names
326,102.0,D,23.0,dirt,2.0,2,,6396.0,Rspan.names.long,E11names
327,102.0,D,23.0,card,3.0,3,,6829.0,Rspan.names.long,E11names
328,102.0,D,23.0,line,4.0,4,,6731.0,Rspan.names.long,E11names
329,102.0,D,24.0,mare,0.0,0,,7061.0,Rspan.names.long,E11names
330,102.0,D,24.0,bell,1.0,1,bell,6490.0,Rspan.names.long,E11names
331,102.0,D,24.0,brain,2.0,2,,6710.0,Rspan.names.long,E11names
332,102.0,D,24.0,beef,3.0,3,,7842.0,Rspan.names.long,E11names
333,102.0,S,25.0,band,0.0,0,band,7263.0,Rspan.names.long,E11names
334,102.0,S,25.0,land,1.0,1,land,6588.0,Rspan.names.long,E11names
335,102.0,S,25.0,stand,2.0,2,stand,6300.0,Rspan.names.long,E11names
336,102.0,S,25.0,hand,3.0,3,hand,6727.0,Rspan.names.long,E11names
337,102.0,S,26.0,pie,0.0,0,pie,6686.0,Rspan.names.long,E11names
338,102.0,S,26.0,fly,1.0,1,,6010.0,Rspan.names.long,E11names
339,102.0,S,26.0,tie,2.0,2,fly,5961.0,Rspan.names.long,E11names
340,102.0,S,26.0,sky,3.0,3,sky,6356.0,Rspan.names.long,E11names
341,102.0,S,26.0,eye,4.0,4,eye,7117.0,Rspan.names.long,E11names
342,102.0,S,27.0,mail,0.0,0,,6965.0,Rspan.names.long,E11names
343,102.0,S,27.0,sail,1.0,1,sail,7094.0,Rspan.names.long,E11names
344,102.0,S,27.0,trail,2.0,2,trail,6265.0,Rspan.names.long,E11names
345,102.0,S,27.0,wail,3.0,3,wail,6751.0,Rspan.names.long,E11names
346,102.0,S,27.0,tail,4.0,4,tail,6568.0,Rspan.names.long,E11names
347,102.0,S,27.0,jail,5.0,,,7145.0,Rspan.names.long,E11names
348,104.0,P,0.0,farm,0.0,0,farm,8789.0,Rspan.names.long,E11names
349,104.0,P,0.0,arm,1.0,1,arm,8516.0,Rspan.names.long,E11names
350,104.0,P,1.0,earth,0.0,0,earth,21244.0,Rspan.names.long,E11names
351,104.0,P,1.0,peach,1.0,1,peach,7204.0,Rspan.names.long,E11names
352,104.0,P,2.0,bath,0.0,0,bath,7087.0,Rspan.names.long,E11names
353,104.0,P,2.0,dawn,1.0,1,dawn,7204.0,Rspan.names.long,E11names
354,104.0,P,3.0,hood,0.0,0,hood,7220.0,Rspan.names.long,E11names
355,104.0,P,3.0,wood,1.0,1,wood,8274.0,Rspan.names.long,E11names
356,104.0,D,4.0,neck,0.0,0,neck,8195.0,Rspan.names.long,E11names
357,104.0,D,4.0,town,1.0,1,,7210.0,Rspan.names.long,E11names
358,104.0,D,4.0,hat,2.0,2,hat,7665.0,Rspan.names.long,E11names
359,104.0,D,4.0,street,3.0,3,street,7804.0,Rspan.names.long,E11names
360,104.0,D,5.0,rice,0.0,0,rice,6784.0,Rspan.names.long,E11names
361,104.0,D,5.0,cat,1.0,1,cat,8368.0,Rspan.names.long,E11names
362,104.0,D,5.0,trash,2.0,2,trash,7343.0,Rspan.names.long,E11names
363,104.0,D,6.0,coin,0.0,0,coin,7186.0,Rspan.names.long,E11names
364,104.0,D,6.0,film,1.0,1,film,7145.0,Rspan.names.long,E11names
365,104.0,D,6.0,leaf,2.0,2,,7779.0,Rspan.names.long,E11names
366,104.0,D,6.0,train,3.0,3,map,7882.0,Rspan.names.long,E11names
367,104.0,D,6.0,map,4.0,4,,8438.0,Rspan.names.long,E11names
368,104.0,D,6.0,art,5.0,,,8521.0,Rspan.names.long,E11names
369,104.0,S,7.0,bread,0.0,0,bread,7858.0,Rspan.names.long,E11names
370,104.0,S,7.0,head,1.0,1,head,7166.0,Rspan.names.long,E11names
371,104.0,S,7.0,thread,2.0,2,thread,6590.0,Rspan.names.long,E11names
372,104.0,S,7.0,bed,3.0,3,bed,7534.0,Rspan.names.long,E11names
373,104.0,S,8.0,cream,0.0,0,cream,6830.0,Rspan.names.long,E11names
374,104.0,S,8.0,team,1.0,1,team,7645.0,Rspan.names.long,E11names
375,104.0,S,8.0,steam,2.0,2,steam,6938.0,Rspan.names.long,E11names
376,104.0,D,9.0,path,0.0,0,,7103.0,Rspan.names.long,E11names
377,104.0,D,9.0,nest,1.0,1,,6386.0,Rspan.names.long,E11names
378,104.0,D,9.0,square,2.0,2,square,7650.0,Rspan.names.long,E11names
379,104.0,D,9.0,wood,3.0,3,,7543.0,Rspan.names.long,E11names
380,104.0,D,9.0,beach,4.0,4,beach,6872.0,Rspan.names.long,E11names
381,104.0,S,10.0,doll,0.0,0,doll,6561.0,Rspan.names.long,E11names
382,104.0,S,10.0,ball,1.0,1,hall,7291.0,Rspan.names.long,E11names
383,104.0,S,10.0,shawl,2.0,2,,6782.0,Rspan.names.long,E11names
384,104.0,S,10.0,hall,3.0,3,,7815.0,Rspan.names.long,E11names
385,104.0,S,10.0,brawl,4.0,4,brawl,7389.0,Rspan.names.long,E11names
386,104.0,S,10.0,wall,5.0,5,wall,7900.0,Rspan.names.long,E11names
387,104.0,S,11.0,king,0.0,0,king,6705.0,Rspan.names.long,E11names
388,104.0,S,11.0,ring,1.0,1,ring,6613.0,Rspan.names.long,E11names
389,104.0,S,11.0,spring,2.0,2,spring,7444.0,Rspan.names.long,E11names
390,104.0,S,11.0,string,3.0,3,string,7881.0,Rspan.names.long,E11names
391,104.0,S,11.0,wing,4.0,4,wing,7653.0,Rspan.names.long,E11names
392,104.0,D,12.0,spice,0.0,0,spice,6483.0,Rspan.names.long,E11names
393,104.0,D,12.0,heat,1.0,1,,24063.0,Rspan.names.long,E11names
394,104.0,D,12.0,shape,2.0,2,,6444.0,Rspan.names.long,E11names
395,104.0,D,12.0,pear,3.0,3,,7675.0,Rspan.names.long,E11names
396,104.0,D,12.0,guest,4.0,4,pear,7472.0,Rspan.names.long,E11names
397,104.0,D,13.0,toy,0.0,0,toy,6778.0,Rspan.names.long,E11names
398,104.0,D,13.0,wreck,1.0,1,wreck,6330.0,Rspan.names.long,E11names
399,104.0,D,13.0,frown,2.0,2,frown,7902.0,Rspan.names.long,E11names
400,104.0,S,14.0,deer,0.0,0,deer,7290.0,Rspan.names.long,E11names
401,104.0,S,14.0,sphere,1.0,1,sphere,7062.0,Rspan.names.long,E11names
402,104.0,S,14.0,ear,2.0,2,,9882.0,Rspan.names.long,E11names
403,104.0,S,14.0,tear,3.0,3,tear,8596.0,Rspan.names.long,E11names
404,104.0,D,15.0,chest,0.0,0,chest,7207.0,Rspan.names.long,E11names
405,104.0,D,15.0,lane,1.0,1,lane,6694.0,Rspan.names.long,E11names
406,104.0,D,15.0,hair,2.0,2,hair,6427.0,Rspan.names.long,E11names
407,104.0,D,15.0,crown,3.0,3,crown,7029.0,Rspan.names.long,E11names
408,104.0,S,16.0,boot,0.0,0,boot,6729.0,Rspan.names.long,E11names
409,104.0,S,16.0,suit,1.0,1,suit,6603.0,Rspan.names.long,E11names
410,104.0,S,16.0,flute,2.0,2,flute,7452.0,Rspan.names.long,E11names
411,104.0,S,16.0,loot,3.0,3,loot,6335.0,Rspan.names.long,E11names
412,104.0,S,16.0,root,4.0,4,,8498.0,Rspan.names.long,E11names
413,104.0,S,16.0,brute,5.0,5,brute,7860.0,Rspan.names.long,E11names
414,104.0,D,17.0,ant,0.0,0,ant,6619.0,Rspan.names.long,E11names
415,104.0,D,17.0,air,1.0,1,air,8227.0,Rspan.names.long,E11names
416,104.0,D,17.0,ink,2.0,2,cloud,7422.0,Rspan.names.long,E11names
417,104.0,D,17.0,cloud,3.0,3,,6701.0,Rspan.names.long,E11names
418,104.0,D,17.0,seat,4.0,4,ink,7665.0,Rspan.names.long,E11names
419,104.0,D,17.0,breath,5.0,5,,6996.0,Rspan.names.long,E11names
420,104.0,S,18.0,bone,0.0,0,bone,6323.0,Rspan.names.long,E11names
421,104.0,S,18.0,phone,1.0,1,phone,6847.0,Rspan.names.long,E11names
422,104.0,S,18.0,stone,2.0,2,stone,6442.0,Rspan.names.long,E11names
423,104.0,S,19.0,jar,0.0,0,jar,6391.0,Rspan.names.long,E11names
424,104.0,S,19.0,bar,1.0,1,bar,6639.0,Rspan.names.long,E11names
425,104.0,S,19.0,car,2.0,2,car,7980.0,Rspan.names.long,E11names
426,104.0,S,19.0,scar,3.0,3,scar,8052.0,Rspan.names.long,E11names
427,104.0,S,19.0,star,4.0,4,star,7368.0,Rspan.names.long,E11names
428,104.0,D,20.0,mare,0.0,0,mare,6339.0,Rspan.names.long,E11names
429,104.0,D,20.0,bell,1.0,1,bell,6868.0,Rspan.names.long,E11names
430,104.0,D,20.0,brain,2.0,2,,7178.0,Rspan.names.long,E11names
431,104.0,D,20.0,beef,3.0,3,beef,7874.0,Rspan.names.long,E11names
432,104.0,D,21.0,deck,0.0,0,deck,8423.0,Rspan.names.long,E11names
433,104.0,D,21.0,slice,1.0,1,slice,7605.0,Rspan.names.long,E11names
434,104.0,D,21.0,rat,2.0,2,rat,6450.0,Rspan.names.long,E11names
435,104.0,S,22.0,band,0.0,0,band,6172.0,Rspan.names.long,E11names
436,104.0,S,22.0,land,1.0,1,,6470.0,Rspan.names.long,E11names
437,104.0,S,22.0,stand,2.0,2,stand,7195.0,Rspan.names.long,E11names
438,104.0,S,22.0,hand,3.0,3,hand,8034.0,Rspan.names.long,E11names
439,104.0,S,23.0,pie,0.0,0,pie,6551.0,Rspan.names.long,E11names
440,104.0,S,23.0,fly,1.0,1,fly,6904.0,Rspan.names.long,E11names
441,104.0,S,23.0,tie,2.0,2,,6956.0,Rspan.names.long,E11names
442,104.0,S,23.0,sky,3.0,3,,6701.0,Rspan.names.long,E11names
443,104.0,S,23.0,eye,4.0,4,eye,7641.0,Rspan.names.long,E11names
444,104.0,D,24.0,shell,0.0,0,shell,6516.0,Rspan.names.long,E11names
445,104.0,D,24.0,tree,1.0,1,tree,7694.0,Rspan.names.long,E11names
446,104.0,D,24.0,bowl,2.0,2,,6825.0,Rspan.names.long,E11names
447,104.0,D,24.0,broom,3.0,3,,6424.0,Rspan.names.long,E11names
448,104.0,D,24.0,test,4.0,4,test,7062.0,Rspan.names.long,E11names
449,104.0,D,24.0,ground,5.0,5,ground,6579.0,Rspan.names.long,E11names
450,104.0,D,25.0,beard,0.0,0,beard,6502.0,Rspan.names.long,E11names
451,104.0,D,25.0,hill,1.0,1,hell,7865.0,Rspan.names.long,E11names
452,104.0,D,25.0,dirt,2.0,2,dirt,7766.0,Rspan.names.long,E11names
453,104.0,D,25.0,card,3.0,3,,6679.0,Rspan.names.long,E11names
454,104.0,D,25.0,line,4.0,4,line,7699.0,Rspan.names.long,E11names
455,104.0,S,26.0,blouse,0.0,0,blouse,7042.0,Rspan.names.long,E11names
456,104.0,S,26.0,house,1.0,1,house,7359.0,Rspan.names.long,E11names
457,104.0,S,26.0,mouse,2.0,2,mouse,7360.0,Rspan.names.long,E11names
458,104.0,S,27.0,mail,0.0,0,mail,6943.0,Rspan.names.long,E11names
459,104.0,S,27.0,sail,1.0,1,sail,7266.0,Rspan.names.long,E11names
460,104.0,S,27.0,trail,2.0,2,tail,7174.0,Rspan.names.long,E11names
461,104.0,S,27.0,wail,3.0,3,trail,7093.0,Rspan.names.long,E11names
462,104.0,S,27.0,tail,4.0,4,wail,8034.0,Rspan.names.long,E11names
463,104.0,S,27.0,jail,5.0,5,jail,7662.0,Rspan.names.long,E11names
464,105.0,P,0.0,hood,0.0,0,hood,13782.0,Rspan.names.long,E11names
465,105.0,P,0.0,wood,1.0,1,wood,6360.0,Rspan.names.long,E11names
466,105.0,P,1.0,farm,0.0,0,farm,7154.0,Rspan.names.long,E11names
467,105.0,P,1.0,arm,1.0,1,arm,5795.0,Rspan.names.long,E11names
468,105.0,P,2.0,bath,0.0,0,,5678.0,Rspan.names.long,E11names
469,105.0,P,2.0,dawn,1.0,1,dawn,5837.0,Rspan.names.long,E11names
470,105.0,P,3.0,earth,0.0,0,earth,7510.0,Rspan.names.long,E11names
471,105.0,P,3.0,peach,1.0,1,peach,5880.0,Rspan.names.long,E11names
472,105.0,D,4.0,neck,0.0,0,neck,5838.0,Rspan.names.long,E11names
473,105.0,D,4.0,town,1.0,1,town,5836.0,Rspan.names.long,E11names
474,105.0,D,4.0,hat,2.0,2,hat,5876.0,Rspan.names.long,E11names
475,105.0,D,4.0,street,3.0,3,street,6537.0,Rspan.names.long,E11names
476,105.0,D,5.0,rice,0.0,0,rice,5753.0,Rspan.names.long,E11names
477,105.0,D,5.0,cat,1.0,1,cat,6162.0,Rspan.names.long,E11names
478,105.0,D,5.0,trash,2.0,2,trash,5965.0,Rspan.names.long,E11names
479,105.0,S,6.0,doll,0.0,0,doll,6216.0,Rspan.names.long,E11names
480,105.0,S,6.0,ball,1.0,1,hall,6064.0,Rspan.names.long,E11names
481,105.0,S,6.0,shawl,2.0,2,shawl,7182.0,Rspan.names.long,E11names
482,105.0,S,6.0,hall,3.0,3,,6517.0,Rspan.names.long,E11names
483,105.0,S,6.0,brawl,4.0,4,,6721.0,Rspan.names.long,E11names
484,105.0,S,6.0,wall,5.0,,,6723.0,Rspan.names.long,E11names
485,105.0,S,7.0,bone,0.0,0,bone,6403.0,Rspan.names.long,E11names
486,105.0,S,7.0,phone,1.0,1,,5595.0,Rspan.names.long,E11names
487,105.0,S,7.0,stone,2.0,2,phone,5692.0,Rspan.names.long,E11names
488,105.0,S,8.0,bread,0.0,0,bread,5573.0,Rspan.names.long,E11names
489,105.0,S,8.0,head,1.0,1,head,5856.0,Rspan.names.long,E11names
490,105.0,S,8.0,thread,2.0,2,thread,6446.0,Rspan.names.long,E11names
491,105.0,S,8.0,bed,3.0,3,bed,6772.0,Rspan.names.long,E11names
492,105.0,S,9.0,king,0.0,0,king,6132.0,Rspan.names.long,E11names
493,105.0,S,9.0,ring,1.0,1,ring,6574.0,Rspan.names.long,E11names
494,105.0,S,9.0,spring,2.0,2,spring,5784.0,Rspan.names.long,E11names
495,105.0,S,9.0,string,3.0,3,string,6377.0,Rspan.names.long,E11names
496,105.0,S,9.0,wing,4.0,4,,6258.0,Rspan.names.long,E11names
497,105.0,D,10.0,coin,0.0,0,,5942.0,Rspan.names.long,E11names
498,105.0,D,10.0,film,1.0,1,film,6136.0,Rspan.names.long,E11names
499,105.0,D,10.0,leaf,2.0,2,leaf,6587.0,Rspan.names.long,E11names
500,105.0,D,10.0,train,3.0,3,train,7010.0,Rspan.names.long,E11names
501,105.0,D,10.0,map,4.0,4,art,6937.0,Rspan.names.long,E11names
502,105.0,D,10.0,art,5.0,,,6668.0,Rspan.names.long,E11names
503,105.0,D,11.0,path,0.0,0,path,7253.0,Rspan.names.long,E11names
504,105.0,D,11.0,nest,1.0,1,nest,6403.0,Rspan.names.long,E11names
505,105.0,D,11.0,square,2.0,2,square,7282.0,Rspan.names.long,E11names
506,105.0,D,11.0,wood,3.0,3,wood,6654.0,Rspan.names.long,E11names
507,105.0,D,11.0,beach,4.0,4,beach,6835.0,Rspan.names.long,E11names
508,105.0,S,12.0,blouse,0.0,0,blouse,5801.0,Rspan.names.long,E11names
509,105.0,S,12.0,house,1.0,1,house,5785.0,Rspan.names.long,E11names
510,105.0,S,12.0,mouse,2.0,2,mouse,5898.0,Rspan.names.long,E11names
511,105.0,D,13.0,toy,0.0,0,toy,6108.0,Rspan.names.long,E11names
512,105.0,D,13.0,wreck,1.0,1,wreck,6240.0,Rspan.names.long,E11names
513,105.0,D,13.0,frown,2.0,2,frown,6366.0,Rspan.names.long,E11names
514,105.0,D,14.0,chest,0.0,0,chest,5965.0,Rspan.names.long,E11names
515,105.0,D,14.0,lane,1.0,1,lane,6055.0,Rspan.names.long,E11names
516,105.0,D,14.0,hair,2.0,2,hair,7060.0,Rspan.names.long,E11names
517,105.0,D,14.0,crown,3.0,3,crown,6201.0,Rspan.names.long,E11names
518,105.0,S,15.0,deer,0.0,0,deer,6186.0,Rspan.names.long,E11names
519,105.0,S,15.0,sphere,1.0,1,sphere,6091.0,Rspan.names.long,E11names
520,105.0,S,15.0,ear,2.0,2,ear,6597.0,Rspan.names.long,E11names
521,105.0,S,15.0,tear,3.0,3,tear,7269.0,Rspan.names.long,E11names
522,105.0,D,16.0,spice,0.0,0,,6358.0,Rspan.names.long,E11names
523,105.0,D,16.0,heat,1.0,1,heat,5679.0,Rspan.names.long,E11names
524,105.0,D,16.0,shape,2.0,2,shape,7229.0,Rspan.names.long,E11names
525,105.0,D,16.0,pear,3.0,3,pair,6171.0,Rspan.names.long,E11names
526,105.0,D,16.0,guest,4.0,4,,6611.0,Rspan.names.long,E11names
527,105.0,S,17.0,boot,0.0,0,boot,6349.0,Rspan.names.long,E11names
528,105.0,S,17.0,suit,1.0,1,suit,6207.0,Rspan.names.long,E11names
529,105.0,S,17.0,flute,2.0,2,flute,6752.0,Rspan.names.long,E11names
530,105.0,S,17.0,loot,3.0,3,loot,6608.0,Rspan.names.long,E11names
531,105.0,S,17.0,root,4.0,4,root,5943.0,Rspan.names.long,E11names
532,105.0,S,17.0,brute,5.0,5,brute,6843.0,Rspan.names.long,E11names
533,105.0,D,18.0,ant,0.0,0,ant,6410.0,Rspan.names.long,E11names
534,105.0,D,18.0,air,1.0,1,air,7186.0,Rspan.names.long,E11names
535,105.0,D,18.0,ink,2.0,2,,6361.0,Rspan.names.long,E11names
536,105.0,D,18.0,cloud,3.0,3,cloud,6331.0,Rspan.names.long,E11names
537,105.0,D,18.0,seat,4.0,4,heat,7158.0,Rspan.names.long,E11names
538,105.0,D,18.0,breath,5.0,5,,6606.0,Rspan.names.long,E11names
539,105.0,S,19.0,jar,0.0,0,jar,6067.0,Rspan.names.long,E11names
540,105.0,S,19.0,bar,1.0,1,bar,6346.0,Rspan.names.long,E11names
541,105.0,S,19.0,car,2.0,2,car,7907.0,Rspan.names.long,E11names
542,105.0,S,19.0,scar,3.0,3,scar,6670.0,Rspan.names.long,E11names
543,105.0,S,19.0,star,4.0,4,star,6442.0,Rspan.names.long,E11names
544,105.0,S,20.0,cream,0.0,0,cream,6090.0,Rspan.names.long,E11names
545,105.0,S,20.0,team,1.0,1,team,7029.0,Rspan.names.long,E11names
546,105.0,S,20.0,steam,2.0,2,steam,6293.0,Rspan.names.long,E11names
547,105.0,S,21.0,band,0.0,0,band,5829.0,Rspan.names.long,E11names
548,105.0,S,21.0,land,1.0,1,land,5980.0,Rspan.names.long,E11names
549,105.0,S,21.0,stand,2.0,2,stand,6055.0,Rspan.names.long,E11names
550,105.0,S,21.0,hand,3.0,3,hand,6613.0,Rspan.names.long,E11names
551,105.0,D,22.0,shell,0.0,0,,6268.0,Rspan.names.long,E11names
552,105.0,D,22.0,tree,1.0,1,tree,7056.0,Rspan.names.long,E11names
553,105.0,D,22.0,bowl,2.0,2,bowl,5910.0,Rspan.names.long,E11names
554,105.0,D,22.0,broom,3.0,3,,7346.0,Rspan.names.long,E11names
555,105.0,D,22.0,test,4.0,4,test,6866.0,Rspan.names.long,E11names
556,105.0,D,22.0,ground,5.0,5,ground,6735.0,Rspan.names.long,E11names
557,105.0,D,23.0,beard,0.0,0,beard,6737.0,Rspan.names.long,E11names
558,105.0,D,23.0,hill,1.0,1,hill,7129.0,Rspan.names.long,E11names
559,105.0,D,23.0,dirt,2.0,2,dirt,6316.0,Rspan.names.long,E11names
560,105.0,D,23.0,card,3.0,3,card,6840.0,Rspan.names.long,E11names
561,105.0,D,23.0,line,4.0,4,line,6700.0,Rspan.names.long,E11names
562,105.0,D,24.0,mare,0.0,0,mare,6094.0,Rspan.names.long,E11names
563,105.0,D,24.0,bell,1.0,1,bell,7179.0,Rspan.names.long,E11names
564,105.0,D,24.0,brain,2.0,2,brain,5826.0,Rspan.names.long,E11names
565,105.0,D,24.0,beef,3.0,3,beef,7202.0,Rspan.names.long,E11names
566,105.0,D,25.0,deck,0.0,0,deck,6205.0,Rspan.names.long,E11names
567,105.0,D,25.0,slice,1.0,1,slice,7477.0,Rspan.names.long,E11names
568,105.0,D,25.0,rat,2.0,2,rat,7289.0,Rspan.names.long,E11names
569,105.0,S,26.0,pie,0.0,0,pie,5935.0,Rspan.names.long,E11names
570,105.0,S,26.0,fly,1.0,1,fly,5731.0,Rspan.names.long,E11names
571,105.0,S,26.0,tie,2.0,2,tie,6606.0,Rspan.names.long,E11names
572,105.0,S,26.0,sky,3.0,3,sky,6782.0,Rspan.names.long,E11names
573,105.0,S,26.0,eye,4.0,4,eye,7591.0,Rspan.names.long,E11names
574,105.0,S,27.0,mail,0.0,0,mail,6101.0,Rspan.names.long,E11names
575,105.0,S,27.0,sail,1.0,1,sail,6295.0,Rspan.names.long,E11names
576,105.0,S,27.0,trail,2.0,2,trail,8069.0,Rspan.names.long,E11names
577,105.0,S,27.0,wail,3.0,3,wail,7192.0,Rspan.names.long,E11names
578,105.0,S,27.0,tail,4.0,4,tail,7208.0,Rspan.names.long,E11names
579,105.0,S,27.0,jail,5.0,5,jail,7030.0,Rspan.names.long,E11names
580,111.0,P,0.0,bath,0.0,0,bath,8492.0,Rspan.names.long,E11names
581,111.0,P,0.0,dawn,1.0,1,dawn,7967.0,Rspan.names.long,E11names
582,111.0,P,1.0,earth,0.0,0,earth,7945.0,Rspan.names.long,E11names
583,111.0,P,1.0,peach,1.0,1,peach,8034.0,Rspan.names.long,E11names
584,111.0,P,2.0,farm,0.0,0,farm,7664.0,Rspan.names.long,E11names
585,111.0,P,2.0,arm,1.0,1,arm,7444.0,Rspan.names.long,E11names
586,111.0,P,3.0,hood,0.0,0,hood,7829.0,Rspan.names.long,E11names
587,111.0,P,3.0,wood,1.0,1,wood,7883.0,Rspan.names.long,E11names
588,111.0,S,4.0,doll,0.0,0,doll,8253.0,Rspan.names.long,E11names
589,111.0,S,4.0,ball,1.0,1,hall,8433.0,Rspan.names.long,E11names
590,111.0,S,4.0,shawl,2.0,2,shawl,8486.0,Rspan.names.long,E11names
591,111.0,S,4.0,hall,3.0,3,brawl,9047.0,Rspan.names.long,E11names
592,111.0,S,4.0,brawl,4.0,4,wall,8284.0,Rspan.names.long,E11names
593,111.0,S,4.0,wall,5.0,5,,8437.0,Rspan.names.long,E11names
594,111.0,S,5.0,blouse,0.0,0,blouse,9234.0,Rspan.names.long,E11names
595,111.0,S,5.0,house,1.0,1,house,9054.0,Rspan.names.long,E11names
596,111.0,S,5.0,mouse,2.0,2,mouse,8770.0,Rspan.names.long,E11names
597,111.0,D,6.0,rice,0.0,0,rice,8326.0,Rspan.names.long,E11names
598,111.0,D,6.0,cat,1.0,1,cat,8984.0,Rspan.names.long,E11names
599,111.0,D,6.0,trash,2.0,2,trash,8350.0,Rspan.names.long,E11names
600,111.0,S,7.0,bread,0.0,0,bread,9601.0,Rspan.names.long,E11names
601,111.0,S,7.0,head,1.0,1,head,8950.0,Rspan.names.long,E11names
602,111.0,S,7.0,thread,2.0,2,thread,8269.0,Rspan.names.long,E11names
603,111.0,S,7.0,bed,3.0,3,bed,7478.0,Rspan.names.long,E11names
604,111.0,S,8.0,king,0.0,0,king,8858.0,Rspan.names.long,E11names
605,111.0,S,8.0,ring,1.0,1,ring,8877.0,Rspan.names.long,E11names
606,111.0,S,8.0,spring,2.0,2,spring,8336.0,Rspan.names.long,E11names
607,111.0,S,8.0,string,3.0,3,string,8704.0,Rspan.names.long,E11names
608,111.0,S,8.0,wing,4.0,4,,9178.0,Rspan.names.long,E11names
609,111.0,D,9.0,path,0.0,0,path,8524.0,Rspan.names.long,E11names
610,111.0,D,9.0,nest,1.0,1,,8318.0,Rspan.names.long,E11names
611,111.0,D,9.0,square,2.0,2,wood,9486.0,Rspan.names.long,E11names
612,111.0,D,9.0,wood,3.0,3,,9568.0,Rspan.names.long,E11names
613,111.0,D,9.0,beach,4.0,4,beach,9285.0,Rspan.names.long,E11names
614,111.0,D,10.0,neck,0.0,0,neck,7675.0,Rspan.names.long,E11names
615,111.0,D,10.0,town,1.0,1,town,8366.0,Rspan.names.long,E11names
616,111.0,D,10.0,hat,2.0,2,hat,9638.0,Rspan.names.long,E11names
617,111.0,D,10.0,street,3.0,3,street,8362.0,Rspan.names.long,E11names
618,111.0,D,11.0,coin,0.0,0,coin,9205.0,Rspan.names.long,E11names
619,111.0,D,11.0,film,1.0,1,film,8579.0,Rspan.names.long,E11names
620,111.0,D,11.0,leaf,2.0,2,train,9313.0,Rspan.names.long,E11names
621,111.0,D,11.0,train,3.0,3,leaf,10514.0,Rspan.names.long,E11names
622,111.0,D,11.0,map,4.0,4,town,9986.0,Rspan.names.long,E11names
623,111.0,D,11.0,art,5.0,5,map,10941.0,Rspan.names.long,E11names
624,111.0,D,12.0,ant,0.0,0,ant,8039.0,Rspan.names.long,E11names
625,111.0,D,12.0,air,1.0,1,air,8339.0,Rspan.names.long,E11names
626,111.0,D,12.0,ink,2.0,2,ink,7764.0,Rspan.names.long,E11names
627,111.0,D,12.0,cloud,3.0,3,cloud,9051.0,Rspan.names.long,E11names
628,111.0,D,12.0,seat,4.0,4,seat,9894.0,Rspan.names.long,E11names
629,111.0,D,12.0,breath,5.0,5,,8352.0,Rspan.names.long,E11names
630,111.0,S,13.0,jar,0.0,0,jar,9382.0,Rspan.names.long,E11names
631,111.0,S,13.0,bar,1.0,1,bar,7412.0,Rspan.names.long,E11names
632,111.0,S,13.0,car,2.0,2,car,7490.0,Rspan.names.long,E11names
633,111.0,S,13.0,scar,3.0,3,scar,6574.0,Rspan.names.long,E11names
634,111.0,S,13.0,star,4.0,4,star,7158.0,Rspan.names.long,E11names
635,111.0,S,14.0,boot,0.0,0,boot,7614.0,Rspan.names.long,E11names
636,111.0,S,14.0,suit,1.0,1,suit,7589.0,Rspan.names.long,E11names
637,111.0,S,14.0,flute,2.0,2,flute,7357.0,Rspan.names.long,E11names
638,111.0,S,14.0,loot,3.0,3,loot,8173.0,Rspan.names.long,E11names
639,111.0,S,14.0,root,4.0,4,broot,8012.0,Rspan.names.long,E11names
640,111.0,S,14.0,brute,5.0,5,,8386.0,Rspan.names.long,E11names
641,111.0,D,15.0,chest,0.0,0,chest,7622.0,Rspan.names.long,E11names
642,111.0,D,15.0,lane,1.0,1,lane,6091.0,Rspan.names.long,E11names
643,111.0,D,15.0,hair,2.0,2,hair,6992.0,Rspan.names.long,E11names
644,111.0,D,15.0,crown,3.0,3,crown,8416.0,Rspan.names.long,E11names
645,111.0,D,16.0,toy,0.0,0,toy,6320.0,Rspan.names.long,E11names
646,111.0,D,16.0,wreck,1.0,1,wreck,6108.0,Rspan.names.long,E11names
647,111.0,D,16.0,frown,2.0,2,frown,7383.0,Rspan.names.long,E11names
648,111.0,S,17.0,bone,0.0,0,bone,6693.0,Rspan.names.long,E11names
649,111.0,S,17.0,phone,1.0,1,phone,6497.0,Rspan.names.long,E11names
650,111.0,S,17.0,stone,2.0,2,stone,7644.0,Rspan.names.long,E11names
651,111.0,S,18.0,deer,0.0,0,deer,7797.0,Rspan.names.long,E11names
652,111.0,S,18.0,sphere,1.0,1,sphere,7412.0,Rspan.names.long,E11names
653,111.0,S,18.0,ear,2.0,2,tear,8906.0,Rspan.names.long,E11names
654,111.0,S,18.0,tear,3.0,3,,7308.0,Rspan.names.long,E11names
655,111.0,D,19.0,spice,0.0,0,spice,13119.0,Rspan.names.long,E11names
656,111.0,D,19.0,heat,1.0,1,,11070.0,Rspan.names.long,E11names
657,111.0,D,19.0,shape,2.0,2,pear,9742.0,Rspan.names.long,E11names
658,111.0,D,19.0,pear,3.0,3,tear,9036.0,Rspan.names.long,E11names
659,111.0,D,19.0,guest,4.0,4,,8945.0,Rspan.names.long,E11names
660,111.0,S,20.0,mail,0.0,0,mail,7073.0,Rspan.names.long,E11names
661,111.0,S,20.0,sail,1.0,1,sail,7149.0,Rspan.names.long,E11names
662,111.0,S,20.0,trail,2.0,2,trail,8695.0,Rspan.names.long,E11names
663,111.0,S,20.0,wail,3.0,3,wail,8401.0,Rspan.names.long,E11names
664,111.0,S,20.0,tail,4.0,4,frail,6983.0,Rspan.names.long,E11names
665,111.0,S,20.0,jail,5.0,5,wail,10767.0,Rspan.names.long,E11names
666,111.0,D,21.0,shell,0.0,0,shell,9805.0,Rspan.names.long,E11names
667,111.0,D,21.0,tree,1.0,1,,6753.0,Rspan.names.long,E11names
668,111.0,D,21.0,bowl,2.0,2,broom,6634.0,Rspan.names.long,E11names
669,111.0,D,21.0,broom,3.0,3,,10849.0,Rspan.names.long,E11names
670,111.0,D,21.0,test,4.0,4,ground,8299.0,Rspan.names.long,E11names
671,111.0,D,21.0,ground,5.0,5,,7172.0,Rspan.names.long,E11names
672,111.0,S,22.0,pie,0.0,0,pie,6950.0,Rspan.names.long,E11names
673,111.0,S,22.0,fly,1.0,1,fly,6182.0,Rspan.names.long,E11names
674,111.0,S,22.0,tie,2.0,2,tie,7054.0,Rspan.names.long,E11names
675,111.0,S,22.0,sky,3.0,3,fry,7172.0,Rspan.names.long,E11names
676,111.0,S,22.0,eye,4.0,4,eye,6397.0,Rspan.names.long,E11names
677,111.0,D,23.0,deck,0.0,0,deck,6946.0,Rspan.names.long,E11names
678,111.0,D,23.0,slice,1.0,1,slice,6731.0,Rspan.names.long,E11names
679,111.0,D,23.0,rat,2.0,2,rat,9078.0,Rspan.names.long,E11names
680,111.0,D,24.0,beard,0.0,0,beard,9773.0,Rspan.names.long,E11names
681,111.0,D,24.0,hill,1.0,1,hill,12747.0,Rspan.names.long,E11names
682,111.0,D,24.0,dirt,2.0,2,dirt,10230.0,Rspan.names.long,E11names
683,111.0,D,24.0,card,3.0,3,card,10994.0,Rspan.names.long,E11names
684,111.0,D,24.0,line,4.0,4,line,8390.0,Rspan.names.long,E11names
685,111.0,S,25.0,cream,0.0,0,cream,11207.0,Rspan.names.long,E11names
686,111.0,S,25.0,team,1.0,1,team,8266.0,Rspan.names.long,E11names
687,111.0,S,25.0,steam,2.0,2,steam,8524.0,Rspan.names.long,E11names
688,111.0,S,26.0,band,0.0,0,band,9844.0,Rspan.names.long,E11names
689,111.0,S,26.0,land,1.0,1,land,8174.0,Rspan.names.long,E11names
690,111.0,S,26.0,stand,2.0,2,stand,8007.0,Rspan.names.long,E11names
691,111.0,S,26.0,hand,3.0,3,hand,10356.0,Rspan.names.long,E11names
692,111.0,D,27.0,mare,0.0,0,mare,8661.0,Rspan.names.long,E11names
693,111.0,D,27.0,bell,1.0,1,bell,9088.0,Rspan.names.long,E11names
694,111.0,D,27.0,brain,2.0,2,brain,7218.0,Rspan.names.long,E11names
695,111.0,D,27.0,beef,3.0,3,beef,7664.0,Rspan.names.long,E11names
696,80.0,P,0.0,hood,0.0,0,hood,7439.0,Rspan.names.long,E11names
697,80.0,P,0.0,wood,1.0,1,wood,6796.0,Rspan.names.long,E11names
698,80.0,P,1.0,bath,0.0,0,bath,6852.0,Rspan.names.long,E11names
699,80.0,P,1.0,dawn,1.0,1,dawn,6322.0,Rspan.names.long,E11names
700,80.0,P,2.0,earth,0.0,0,earth,6570.0,Rspan.names.long,E11names
701,80.0,P,2.0,peach,1.0,1,peach,6725.0,Rspan.names.long,E11names
702,80.0,P,3.0,farm,0.0,0,farm,6502.0,Rspan.names.long,E11names
703,80.0,P,3.0,arm,1.0,1,arm,7145.0,Rspan.names.long,E11names
704,80.0,D,4.0,coin,0.0,0,coin,6686.0,Rspan.names.long,E11names
705,80.0,D,4.0,film,1.0,1,film,6090.0,Rspan.names.long,E11names
706,80.0,D,4.0,leaf,2.0,2,earth,6006.0,Rspan.names.long,E11names
707,80.0,D,4.0,train,3.0,3,map,8798.0,Rspan.names.long,E11names
708,80.0,D,4.0,map,4.0,4,art,6012.0,Rspan.names.long,E11names
709,80.0,D,4.0,art,5.0,5,,6260.0,Rspan.names.long,E11names
710,80.0,D,5.0,path,0.0,0,path,6275.0,Rspan.names.long,E11names
711,80.0,D,5.0,nest,1.0,1,nest,6768.0,Rspan.names.long,E11names
712,80.0,D,5.0,square,2.0,2,,6681.0,Rspan.names.long,E11names
713,80.0,D,5.0,wood,3.0,3,beach,7773.0,Rspan.names.long,E11names
714,80.0,D,5.0,beach,4.0,,,6925.0,Rspan.names.long,E11names
715,80.0,D,6.0,rice,0.0,0,rice,6080.0,Rspan.names.long,E11names
716,80.0,D,6.0,cat,1.0,1,cat,7221.0,Rspan.names.long,E11names
717,80.0,D,6.0,trash,2.0,2,trash,7580.0,Rspan.names.long,E11names
718,80.0,S,7.0,doll,0.0,0,doll,6454.0,Rspan.names.long,E11names
719,80.0,S,7.0,ball,1.0,1,,6323.0,Rspan.names.long,E11names
720,80.0,S,7.0,shawl,2.0,2,hall,7030.0,Rspan.names.long,E11names
721,80.0,S,7.0,hall,3.0,3,shawl,7029.0,Rspan.names.long,E11names
722,80.0,S,7.0,brawl,4.0,4,,6603.0,Rspan.names.long,E11names
723,80.0,S,7.0,wall,5.0,,,6570.0,Rspan.names.long,E11names
724,80.0,S,8.0,cream,0.0,0,cream,6109.0,Rspan.names.long,E11names
725,80.0,S,8.0,team,1.0,1,steam,7256.0,Rspan.names.long,E11names
726,80.0,S,8.0,steam,2.0,,,7173.0,Rspan.names.long,E11names
727,80.0,S,9.0,bread,0.0,0,bread,7208.0,Rspan.names.long,E11names
728,80.0,S,9.0,head,1.0,1,head,7207.0,Rspan.names.long,E11names
729,80.0,S,9.0,thread,2.0,2,,7366.0,Rspan.names.long,E11names
730,80.0,S,9.0,bed,3.0,3,bed,7278.0,Rspan.names.long,E11names
731,80.0,S,10.0,king,0.0,0,king,6457.0,Rspan.names.long,E11names
732,80.0,S,10.0,ring,1.0,1,ring,7209.0,Rspan.names.long,E11names
733,80.0,S,10.0,spring,2.0,2,spring,7846.0,Rspan.names.long,E11names
734,80.0,S,10.0,string,3.0,3,,6658.0,Rspan.names.long,E11names
735,80.0,S,10.0,wing,4.0,4,wing,7432.0,Rspan.names.long,E11names
736,80.0,D,11.0,neck,0.0,0,neck,6917.0,Rspan.names.long,E11names
737,80.0,D,11.0,town,1.0,1,,8169.0,Rspan.names.long,E11names
738,80.0,D,11.0,hat,2.0,2,hat,6944.0,Rspan.names.long,E11names
739,80.0,D,11.0,street,3.0,3,street,6897.0,Rspan.names.long,E11names
740,80.0,D,12.0,toy,0.0,0,toy,6445.0,Rspan.names.long,E11names
741,80.0,D,12.0,wreck,1.0,1,wreck,6364.0,Rspan.names.long,E11names
742,80.0,D,12.0,frown,2.0,2,frown,6437.0,Rspan.names.long,E11names
743,80.0,D,13.0,chest,0.0,0,chest,7422.0,Rspan.names.long,E11names
744,80.0,D,13.0,lane,1.0,1,lane,6196.0,Rspan.names.long,E11names
745,80.0,D,13.0,hair,2.0,2,,7908.0,Rspan.names.long,E11names
746,80.0,D,13.0,crown,3.0,3,,6966.0,Rspan.names.long,E11names
747,80.0,D,14.0,ant,0.0,0,ant,6547.0,Rspan.names.long,E11names
748,80.0,D,14.0,air,1.0,1,,7445.0,Rspan.names.long,E11names
749,80.0,D,14.0,ink,2.0,2,,8555.0,Rspan.names.long,E11names
750,80.0,D,14.0,cloud,3.0,3,,8202.0,Rspan.names.long,E11names
751,80.0,D,14.0,seat,4.0,4,,6528.0,Rspan.names.long,E11names
752,80.0,D,14.0,breath,5.0,5,breath,7627.0,Rspan.names.long,E11names
753,80.0,S,15.0,blouse,0.0,0,blouse,6506.0,Rspan.names.long,E11names
754,80.0,S,15.0,house,1.0,1,house,6333.0,Rspan.names.long,E11names
755,80.0,S,15.0,mouse,2.0,2,mouse,7216.0,Rspan.names.long,E11names
756,80.0,S,16.0,jar,0.0,0,jar,7282.0,Rspan.names.long,E11names
757,80.0,S,16.0,bar,1.0,1,bar,7006.0,Rspan.names.long,E11names
758,80.0,S,16.0,car,2.0,2,,7266.0,Rspan.names.long,E11names
759,80.0,S,16.0,scar,3.0,3,,6323.0,Rspan.names.long,E11names
760,80.0,S,16.0,star,4.0,4,star,6813.0,Rspan.names.long,E11names
761,80.0,S,17.0,boot,0.0,0,boot,7233.0,Rspan.names.long,E11names
762,80.0,S,17.0,suit,1.0,1,suit,6677.0,Rspan.names.long,E11names
763,80.0,S,17.0,flute,2.0,2,,7720.0,Rspan.names.long,E11names
764,80.0,S,17.0,loot,3.0,3,,6716.0,Rspan.names.long,E11names
765,80.0,S,17.0,root,4.0,4,,8037.0,Rspan.names.long,E11names
766,80.0,S,17.0,brute,5.0,5,loot,6274.0,Rspan.names.long,E11names
767,80.0,S,18.0,deer,0.0,0,,7513.0,Rspan.names.long,E11names
768,80.0,S,18.0,sphere,1.0,1,,6580.0,Rspan.names.long,E11names
769,80.0,S,18.0,ear,2.0,2,,6572.0,Rspan.names.long,E11names
770,80.0,S,18.0,tear,3.0,3,tear,6501.0,Rspan.names.long,E11names
771,80.0,D,19.0,spice,0.0,0,,6244.0,Rspan.names.long,E11names
772,80.0,D,19.0,heat,1.0,1,,8154.0,Rspan.names.long,E11names
773,80.0,D,19.0,shape,2.0,2,,7002.0,Rspan.names.long,E11names
774,80.0,D,19.0,pear,3.0,3,,6281.0,Rspan.names.long,E11names
775,80.0,D,19.0,guest,4.0,4,heat,7198.0,Rspan.names.long,E11names
776,80.0,D,20.0,shell,0.0,0,,6394.0,Rspan.names.long,E11names
777,80.0,D,20.0,tree,1.0,1,,6658.0,Rspan.names.long,E11names
778,80.0,D,20.0,bowl,2.0,2,,6343.0,Rspan.names.long,E11names
779,80.0,D,20.0,broom,3.0,3,test,6498.0,Rspan.names.long,E11names
780,80.0,D,20.0,test,4.0,4,,7926.0,Rspan.names.long,E11names
781,80.0,D,20.0,ground,5.0,5,ground,8271.0,Rspan.names.long,E11names
782,80.0,S,21.0,band,0.0,0,band,6176.0,Rspan.names.long,E11names
783,80.0,S,21.0,land,1.0,1,,7769.0,Rspan.names.long,E11names
784,80.0,S,21.0,stand,2.0,2,,7312.0,Rspan.names.long,E11names
785,80.0,S,21.0,hand,3.0,3,,7179.0,Rspan.names.long,E11names
786,80.0,S,22.0,bone,0.0,0,bone,6519.0,Rspan.names.long,E11names
787,80.0,S,22.0,phone,1.0,1,,7608.0,Rspan.names.long,E11names
788,80.0,S,22.0,stone,2.0,2,stone,7342.0,Rspan.names.long,E11names
789,80.0,D,23.0,mare,0.0,0,mare,7099.0,Rspan.names.long,E11names
790,80.0,D,23.0,bell,1.0,1,bell,9221.0,Rspan.names.long,E11names
791,80.0,D,23.0,brain,2.0,2,,6345.0,Rspan.names.long,E11names
792,80.0,D,23.0,beef,3.0,3,,7525.0,Rspan.names.long,E11names
793,80.0,D,24.0,beard,0.0,0,,6391.0,Rspan.names.long,E11names
794,80.0,D,24.0,hill,1.0,1,,6778.0,Rspan.names.long,E11names
795,80.0,D,24.0,dirt,2.0,2,,6280.0,Rspan.names.long,E11names
796,80.0,D,24.0,card,3.0,3,card,7414.0,Rspan.names.long,E11names
797,80.0,D,24.0,line,4.0,4,line,6852.0,Rspan.names.long,E11names
798,80.0,S,25.0,pie,0.0,0,tie,7321.0,Rspan.names.long,E11names
799,80.0,S,25.0,fly,1.0,1,,7930.0,Rspan.names.long,E11names
800,80.0,S,25.0,tie,2.0,2,,7572.0,Rspan.names.long,E11names
801,80.0,S,25.0,sky,3.0,3,,9138.0,Rspan.names.long,E11names
802,80.0,S,25.0,eye,4.0,4,fly,6132.0,Rspan.names.long,E11names
803,80.0,S,26.0,mail,0.0,0,pail,6915.0,Rspan.names.long,E11names
804,80.0,S,26.0,sail,1.0,1,mail,6885.0,Rspan.names.long,E11names
805,80.0,S,26.0,trail,2.0,2,,8546.0,Rspan.names.long,E11names
806,80.0,S,26.0,wail,3.0,3,,8026.0,Rspan.names.long,E11names
807,80.0,S,26.0,tail,4.0,4,jail,6623.0,Rspan.names.long,E11names
808,80.0,S,26.0,jail,5.0,,,8486.0,Rspan.names.long,E11names
809,80.0,D,27.0,deck,0.0,0,tail,7028.0,Rspan.names.long,E11names
810,80.0,D,27.0,slice,1.0,1,rat,7706.0,Rspan.names.long,E11names
811,80.0,D,27.0,rat,2.0,,,8012.0,Rspan.names.long,E11names
812,81.0,P,0.0,bath,0.0,0,bath,6510.0,Rspan.names.long,E11names
813,81.0,P,0.0,dawn,1.0,1,dawn,6585.0,Rspan.names.long,E11names
814,81.0,P,1.0,farm,0.0,0,farm,5844.0,Rspan.names.long,E11names
815,81.0,P,1.0,arm,1.0,1,arm,8242.0,Rspan.names.long,E11names
816,81.0,P,2.0,earth,0.0,0,earth,5568.0,Rspan.names.long,E11names
817,81.0,P,2.0,peach,1.0,1,peach,5120.0,Rspan.names.long,E11names
818,81.0,P,3.0,hood,0.0,0,hood,5370.0,Rspan.names.long,E11names
819,81.0,P,3.0,wood,1.0,1,wood,5357.0,Rspan.names.long,E11names
820,81.0,S,4.0,bread,0.0,0,bread,5513.0,Rspan.names.long,E11names
821,81.0,S,4.0,head,1.0,1,head,5974.0,Rspan.names.long,E11names
822,81.0,S,4.0,thread,2.0,2,,5543.0,Rspan.names.long,E11names
823,81.0,S,4.0,bed,3.0,3,thread,6089.0,Rspan.names.long,E11names
824,81.0,D,5.0,path,0.0,0,,5760.0,Rspan.names.long,E11names
825,81.0,D,5.0,nest,1.0,1,path,5642.0,Rspan.names.long,E11names
826,81.0,D,5.0,square,2.0,2,square,6154.0,Rspan.names.long,E11names
827,81.0,D,5.0,wood,3.0,3,wood,6653.0,Rspan.names.long,E11names
828,81.0,D,5.0,beach,4.0,4,beack,6921.0,Rspan.names.long,E11names
829,81.0,D,6.0,coin,0.0,0,coin,5688.0,Rspan.names.long,E11names
830,81.0,D,6.0,film,1.0,1,film,6349.0,Rspan.names.long,E11names
831,81.0,D,6.0,leaf,2.0,2,leaf,7007.0,Rspan.names.long,E11names
832,81.0,D,6.0,train,3.0,3,,6868.0,Rspan.names.long,E11names
833,81.0,D,6.0,map,4.0,4,art,6058.0,Rspan.names.long,E11names
834,81.0,D,6.0,art,5.0,,,6135.0,Rspan.names.long,E11names
835,81.0,D,7.0,neck,0.0,0,neck,6445.0,Rspan.names.long,E11names
836,81.0,D,7.0,town,1.0,1,town,6203.0,Rspan.names.long,E11names
837,81.0,D,7.0,hat,2.0,2,hat,6243.0,Rspan.names.long,E11names
838,81.0,D,7.0,street,3.0,3,street,6010.0,Rspan.names.long,E11names
839,81.0,S,8.0,king,0.0,0,king,6123.0,Rspan.names.long,E11names
840,81.0,S,8.0,ring,1.0,1,ring,5359.0,Rspan.names.long,E11names
841,81.0,S,8.0,spring,2.0,2,,6810.0,Rspan.names.long,E11names
842,81.0,S,8.0,string,3.0,3,string,5994.0,Rspan.names.long,E11names
843,81.0,S,8.0,wing,4.0,4,wing,7066.0,Rspan.names.long,E11names
844,81.0,S,9.0,bone,0.0,0,bone,5666.0,Rspan.names.long,E11names
845,81.0,S,9.0,phone,1.0,1,phone,5983.0,Rspan.names.long,E11names
846,81.0,S,9.0,stone,2.0,2,stone,5513.0,Rspan.names.long,E11names
847,81.0,D,10.0,rice,0.0,0,,4928.0,Rspan.names.long,E11names
848,81.0,D,10.0,cat,1.0,1,cat,6323.0,Rspan.names.long,E11names
849,81.0,D,10.0,trash,2.0,2,trash,8111.0,Rspan.names.long,E11names
850,81.0,S,11.0,doll,0.0,0,doll,6203.0,Rspan.names.long,E11names
851,81.0,S,11.0,ball,1.0,1,ball,5633.0,Rspan.names.long,E11names
852,81.0,S,11.0,shawl,2.0,2,shawl,5433.0,Rspan.names.long,E11names
853,81.0,S,11.0,hall,3.0,3,hall,6753.0,Rspan.names.long,E11names
854,81.0,S,11.0,brawl,4.0,4,wall,6777.0,Rspan.names.long,E11names
855,81.0,S,11.0,wall,5.0,,,6091.0,Rspan.names.long,E11names
856,81.0,D,12.0,chest,0.0,0,chest,5865.0,Rspan.names.long,E11names
857,81.0,D,12.0,lane,1.0,1,lane,6376.0,Rspan.names.long,E11names
858,81.0,D,12.0,hair,2.0,2,hair,6601.0,Rspan.names.long,E11names
859,81.0,D,12.0,crown,3.0,3,crown,6280.0,Rspan.names.long,E11names
860,81.0,S,13.0,deer,0.0,0,,6030.0,Rspan.names.long,E11names
861,81.0,S,13.0,sphere,1.0,1,sphere,5893.0,Rspan.names.long,E11names
862,81.0,S,13.0,ear,2.0,2,,5346.0,Rspan.names.long,E11names
863,81.0,S,13.0,tear,3.0,3,tear,6693.0,Rspan.names.long,E11names
864,81.0,S,14.0,boot,0.0,0,boot,5624.0,Rspan.names.long,E11names
865,81.0,S,14.0,suit,1.0,1,suit,5350.0,Rspan.names.long,E11names
866,81.0,S,14.0,flute,2.0,2,loot,6297.0,Rspan.names.long,E11names
867,81.0,S,14.0,loot,3.0,3,,6413.0,Rspan.names.long,E11names
868,81.0,S,14.0,root,4.0,4,brute,6197.0,Rspan.names.long,E11names
869,81.0,S,14.0,brute,5.0,,,5868.0,Rspan.names.long,E11names
870,81.0,S,15.0,blouse,0.0,0,blouse,6278.0,Rspan.names.long,E11names
871,81.0,S,15.0,house,1.0,1,house,5204.0,Rspan.names.long,E11names
872,81.0,S,15.0,mouse,2.0,2,mouse,6484.0,Rspan.names.long,E11names
873,81.0,D,16.0,toy,0.0,0,toy,6649.0,Rspan.names.long,E11names
874,81.0,D,16.0,wreck,1.0,1,neck,5221.0,Rspan.names.long,E11names
875,81.0,D,16.0,frown,2.0,2,frown,7086.0,Rspan.names.long,E11names
876,81.0,D,17.0,spice,0.0,0,spice,5173.0,Rspan.names.long,E11names
877,81.0,D,17.0,heat,1.0,1,heat,5127.0,Rspan.names.long,E11names
878,81.0,D,17.0,shape,2.0,2,,5322.0,Rspan.names.long,E11names
879,81.0,D,17.0,pear,3.0,3,pear,6182.0,Rspan.names.long,E11names
880,81.0,D,17.0,guest,4.0,4,guest,6264.0,Rspan.names.long,E11names
881,81.0,S,18.0,jar,0.0,0,jar,5920.0,Rspan.names.long,E11names
882,81.0,S,18.0,bar,1.0,1,bar,5587.0,Rspan.names.long,E11names
883,81.0,S,18.0,car,2.0,2,car,5732.0,Rspan.names.long,E11names
884,81.0,S,18.0,scar,3.0,3,scar,6215.0,Rspan.names.long,E11names
885,81.0,S,18.0,star,4.0,4,star,6134.0,Rspan.names.long,E11names
886,81.0,D,19.0,ant,0.0,0,ant,6526.0,Rspan.names.long,E11names
887,81.0,D,19.0,air,1.0,1,air,5592.0,Rspan.names.long,E11names
888,81.0,D,19.0,ink,2.0,2,,6402.0,Rspan.names.long,E11names
889,81.0,D,19.0,cloud,3.0,3,cloud,5680.0,Rspan.names.long,E11names
890,81.0,D,19.0,seat,4.0,4,seat,6871.0,Rspan.names.long,E11names
891,81.0,D,19.0,breath,5.0,5,,6585.0,Rspan.names.long,E11names
892,81.0,S,20.0,pie,0.0,0,pie,6327.0,Rspan.names.long,E11names
893,81.0,S,20.0,fly,1.0,1,fly,5898.0,Rspan.names.long,E11names
894,81.0,S,20.0,tie,2.0,2,,5398.0,Rspan.names.long,E11names
895,81.0,S,20.0,sky,3.0,3,sky,6919.0,Rspan.names.long,E11names
896,81.0,S,20.0,eye,4.0,4,eye,5738.0,Rspan.names.long,E11names
897,81.0,S,21.0,band,0.0,0,band,5953.0,Rspan.names.long,E11names
898,81.0,S,21.0,land,1.0,1,land,5307.0,Rspan.names.long,E11names
899,81.0,S,21.0,stand,2.0,2,stand,5865.0,Rspan.names.long,E11names
900,81.0,S,21.0,hand,3.0,3,hand,6103.0,Rspan.names.long,E11names
901,81.0,S,22.0,cream,0.0,0,cream,5300.0,Rspan.names.long,E11names
902,81.0,S,22.0,team,1.0,1,team,5560.0,Rspan.names.long,E11names
903,81.0,S,22.0,steam,2.0,2,steam,5923.0,Rspan.names.long,E11names
904,81.0,D,23.0,beard,0.0,0,beard,7048.0,Rspan.names.long,E11names
905,81.0,D,23.0,hill,1.0,1,hill,5678.0,Rspan.names.long,E11names
906,81.0,D,23.0,dirt,2.0,2,dirt,5668.0,Rspan.names.long,E11names
907,81.0,D,23.0,card,3.0,3,card,5841.0,Rspan.names.long,E11names
908,81.0,D,23.0,line,4.0,4,line,6576.0,Rspan.names.long,E11names
909,81.0,D,24.0,mare,0.0,0,mare,5519.0,Rspan.names.long,E11names
910,81.0,D,24.0,bell,1.0,1,,8874.0,Rspan.names.long,E11names
911,81.0,D,24.0,brain,2.0,2,brain,6709.0,Rspan.names.long,E11names
912,81.0,D,24.0,beef,3.0,3,beef,7296.0,Rspan.names.long,E11names
913,81.0,D,25.0,shell,0.0,0,shell,5126.0,Rspan.names.long,E11names
914,81.0,D,25.0,tree,1.0,1,tree,5409.0,Rspan.names.long,E11names
915,81.0,D,25.0,bowl,2.0,2,bowl,6075.0,Rspan.names.long,E11names
916,81.0,D,25.0,broom,3.0,3,broom,6080.0,Rspan.names.long,E11names
917,81.0,D,25.0,test,4.0,4,test,6245.0,Rspan.names.long,E11names
918,81.0,D,25.0,ground,5.0,5,ground,7451.0,Rspan.names.long,E11names
919,81.0,S,26.0,mail,0.0,0,sail,6702.0,Rspan.names.long,E11names
920,81.0,S,26.0,sail,1.0,1,trail,5849.0,Rspan.names.long,E11names
921,81.0,S,26.0,trail,2.0,2,,5455.0,Rspan.names.long,E11names
922,81.0,S,26.0,wail,3.0,3,wail,6582.0,Rspan.names.long,E11names
923,81.0,S,26.0,tail,4.0,4,tail,8063.0,Rspan.names.long,E11names
924,81.0,S,26.0,jail,5.0,,,7403.0,Rspan.names.long,E11names
925,81.0,D,27.0,deck,0.0,0,deck,6005.0,Rspan.names.long,E11names
926,81.0,D,27.0,slice,1.0,1,slice,5941.0,Rspan.names.long,E11names
927,81.0,D,27.0,rat,2.0,2,rat,5633.0,Rspan.names.long,E11names
928,82.0,P,0.0,earth,0.0,0,earth,13115.0,Rspan.names.long,E11names
929,82.0,P,0.0,peach,1.0,1,peach,6649.0,Rspan.names.long,E11names
930,82.0,P,1.0,bath,0.0,0,bath,5759.0,Rspan.names.long,E11names
931,82.0,P,1.0,dawn,1.0,1,dawn,5952.0,Rspan.names.long,E11names
932,82.0,P,2.0,hood,0.0,0,hood,6472.0,Rspan.names.long,E11names
933,82.0,P,2.0,wood,1.0,1,wood,5270.0,Rspan.names.long,E11names
934,82.0,P,3.0,farm,0.0,0,farm,5787.0,Rspan.names.long,E11names
935,82.0,P,3.0,arm,1.0,1,arm,5323.0,Rspan.names.long,E11names
936,82.0,S,4.0,bone,0.0,0,bone,6188.0,Rspan.names.long,E11names
937,82.0,S,4.0,phone,1.0,1,phone,5756.0,Rspan.names.long,E11names
938,82.0,S,4.0,stone,2.0,2,stone,6766.0,Rspan.names.long,E11names
939,82.0,S,5.0,bread,0.0,0,bread,6422.0,Rspan.names.long,E11names
940,82.0,S,5.0,head,1.0,1,head,6045.0,Rspan.names.long,E11names
941,82.0,S,5.0,thread,2.0,2,thread,6092.0,Rspan.names.long,E11names
942,82.0,S,5.0,bed,3.0,3,bed,6288.0,Rspan.names.long,E11names
943,82.0,S,6.0,king,0.0,0,king,7112.0,Rspan.names.long,E11names
944,82.0,S,6.0,ring,1.0,1,ring,6563.0,Rspan.names.long,E11names
945,82.0,S,6.0,spring,2.0,2,spring,7260.0,Rspan.names.long,E11names
946,82.0,S,6.0,string,3.0,3,string,6289.0,Rspan.names.long,E11names
947,82.0,S,6.0,wing,4.0,4,,7253.0,Rspan.names.long,E11names
948,82.0,D,7.0,neck,0.0,0,neck,6371.0,Rspan.names.long,E11names
949,82.0,D,7.0,town,1.0,1,town,7756.0,Rspan.names.long,E11names
950,82.0,D,7.0,hat,2.0,2,hat,7205.0,Rspan.names.long,E11names
951,82.0,D,7.0,street,3.0,3,street,6132.0,Rspan.names.long,E11names
952,82.0,S,8.0,doll,0.0,0,doll,7229.0,Rspan.names.long,E11names
953,82.0,S,8.0,ball,1.0,1,ball,6219.0,Rspan.names.long,E11names
954,82.0,S,8.0,shawl,2.0,2,shawl,6811.0,Rspan.names.long,E11names
955,82.0,S,8.0,hall,3.0,3,wall,5930.0,Rspan.names.long,E11names
956,82.0,S,8.0,brawl,4.0,4,,5877.0,Rspan.names.long,E11names
957,82.0,S,8.0,wall,5.0,,,7587.0,Rspan.names.long,E11names
958,82.0,D,9.0,coin,0.0,0,coin,6324.0,Rspan.names.long,E11names
959,82.0,D,9.0,film,1.0,1,film,5967.0,Rspan.names.long,E11names
960,82.0,D,9.0,leaf,2.0,2,,7328.0,Rspan.names.long,E11names
961,82.0,D,9.0,train,3.0,3,map,7274.0,Rspan.names.long,E11names
962,82.0,D,9.0,map,4.0,4,art,7382.0,Rspan.names.long,E11names
963,82.0,D,9.0,art,5.0,5,,6070.0,Rspan.names.long,E11names
964,82.0,D,10.0,rice,0.0,0,rice,6449.0,Rspan.names.long,E11names
965,82.0,D,10.0,cat,1.0,1,cat,6431.0,Rspan.names.long,E11names
966,82.0,D,10.0,trash,2.0,2,trash,6614.0,Rspan.names.long,E11names
967,82.0,D,11.0,path,0.0,0,,6194.0,Rspan.names.long,E11names
968,82.0,D,11.0,nest,1.0,1,nest,5707.0,Rspan.names.long,E11names
969,82.0,D,11.0,square,2.0,2,square,7127.0,Rspan.names.long,E11names
970,82.0,D,11.0,wood,3.0,3,wood,7113.0,Rspan.names.long,E11names
971,82.0,D,11.0,beach,4.0,4,beach,6092.0,Rspan.names.long,E11names
972,82.0,D,12.0,spice,0.0,0,spice,6441.0,Rspan.names.long,E11names
973,82.0,D,12.0,heat,1.0,1,heat,7072.0,Rspan.names.long,E11names
974,82.0,D,12.0,shape,2.0,2,shape,6868.0,Rspan.names.long,E11names
975,82.0,D,12.0,pear,3.0,3,pear,6896.0,Rspan.names.long,E11names
976,82.0,D,12.0,guest,4.0,4,guest,6948.0,Rspan.names.long,E11names
977,82.0,S,13.0,cream,0.0,0,cream,5890.0,Rspan.names.long,E11names
978,82.0,S,13.0,team,1.0,1,team,5943.0,Rspan.names.long,E11names
979,82.0,S,13.0,steam,2.0,2,steam,7050.0,Rspan.names.long,E11names
980,82.0,S,14.0,jar,0.0,0,jar,5762.0,Rspan.names.long,E11names
981,82.0,S,14.0,bar,1.0,1,bar,5764.0,Rspan.names.long,E11names
982,82.0,S,14.0,car,2.0,2,car,6238.0,Rspan.names.long,E11names
983,82.0,S,14.0,scar,3.0,3,scar,6180.0,Rspan.names.long,E11names
984,82.0,S,14.0,star,4.0,4,star,6429.0,Rspan.names.long,E11names
985,82.0,S,15.0,deer,0.0,0,deer,6325.0,Rspan.names.long,E11names
986,82.0,S,15.0,sphere,1.0,1,sphere,6256.0,Rspan.names.long,E11names
987,82.0,S,15.0,ear,2.0,2,ear,7558.0,Rspan.names.long,E11names
988,82.0,S,15.0,tear,3.0,3,tear,7542.0,Rspan.names.long,E11names
989,82.0,D,16.0,toy,0.0,0,toy,6932.0,Rspan.names.long,E11names
990,82.0,D,16.0,wreck,1.0,1,wreck,6222.0,Rspan.names.long,E11names
991,82.0,D,16.0,frown,2.0,2,frown,9501.0,Rspan.names.long,E11names
992,82.0,D,17.0,ant,0.0,0,ant,5923.0,Rspan.names.long,E11names
993,82.0,D,17.0,air,1.0,1,air,5966.0,Rspan.names.long,E11names
994,82.0,D,17.0,ink,2.0,2,ink,7184.0,Rspan.names.long,E11names
995,82.0,D,17.0,cloud,3.0,3,cloud,7655.0,Rspan.names.long,E11names
996,82.0,D,17.0,seat,4.0,4,seat,8315.0,Rspan.names.long,E11names
997,82.0,D,17.0,breath,5.0,5,breath,6509.0,Rspan.names.long,E11names
998,82.0,S,18.0,boot,0.0,0,boot,8111.0,Rspan.names.long,E11names
999,82.0,S,18.0,suit,1.0,1,suit,6169.0,Rspan.names.long,E11names
1000,82.0,S,18.0,flute,2.0,2,flute,6690.0,Rspan.names.long,E11names
1001,82.0,S,18.0,loot,3.0,3,,6798.0,Rspan.names.long,E11names
1002,82.0,S,18.0,root,4.0,4,root,9070.0,Rspan.names.long,E11names
1003,82.0,S,18.0,brute,5.0,5,,8680.0,Rspan.names.long,E11names
1004,82.0,D,19.0,chest,0.0,0,chest,7409.0,Rspan.names.long,E11names
1005,82.0,D,19.0,lane,1.0,1,lane,6176.0,Rspan.names.long,E11names
1006,82.0,D,19.0,hair,2.0,2,hair,8513.0,Rspan.names.long,E11names
1007,82.0,D,19.0,crown,3.0,3,crown,9123.0,Rspan.names.long,E11names
1008,82.0,D,20.0,beard,0.0,0,beard,5660.0,Rspan.names.long,E11names
1009,82.0,D,20.0,hill,1.0,1,hill,6427.0,Rspan.names.long,E11names
1010,82.0,D,20.0,dirt,2.0,2,dirt,7194.0,Rspan.names.long,E11names
1011,82.0,D,20.0,card,3.0,3,card,10121.0,Rspan.names.long,E11names
1012,82.0,D,20.0,line,4.0,4,line,8793.0,Rspan.names.long,E11names
1013,82.0,S,21.0,pie,0.0,0,pie,6249.0,Rspan.names.long,E11names
1014,82.0,S,21.0,fly,1.0,1,fly,6159.0,Rspan.names.long,E11names
1015,82.0,S,21.0,tie,2.0,2,tie,6833.0,Rspan.names.long,E11names
1016,82.0,S,21.0,sky,3.0,3,sky,6663.0,Rspan.names.long,E11names
1017,82.0,S,21.0,eye,4.0,4,eye,9044.0,Rspan.names.long,E11names
1018,82.0,S,22.0,band,0.0,0,band,6404.0,Rspan.names.long,E11names
1019,82.0,S,22.0,land,1.0,1,land,6331.0,Rspan.names.long,E11names
1020,82.0,S,22.0,stand,2.0,2,stand,6230.0,Rspan.names.long,E11names
1021,82.0,S,22.0,hand,3.0,3,hand,8021.0,Rspan.names.long,E11names
1022,82.0,D,23.0,deck,0.0,0,deck,7544.0,Rspan.names.long,E11names
1023,82.0,D,23.0,slice,1.0,1,slice,7377.0,Rspan.names.long,E11names
1024,82.0,D,23.0,rat,2.0,2,rat,6841.0,Rspan.names.long,E11names
1025,82.0,D,24.0,shell,0.0,0,shell,6603.0,Rspan.names.long,E11names
1026,82.0,D,24.0,tree,1.0,1,tree,6578.0,Rspan.names.long,E11names
1027,82.0,D,24.0,bowl,2.0,2,,6691.0,Rspan.names.long,E11names
1028,82.0,D,24.0,broom,3.0,3,,7759.0,Rspan.names.long,E11names
1029,82.0,D,24.0,test,4.0,4,ground,10079.0,Rspan.names.long,E11names
1030,82.0,D,24.0,ground,5.0,,,6313.0,Rspan.names.long,E11names
1031,82.0,D,25.0,mare,0.0,0,mare,8086.0,Rspan.names.long,E11names
1032,82.0,D,25.0,bell,1.0,1,bell,6625.0,Rspan.names.long,E11names
1033,82.0,D,25.0,brain,2.0,2,brain,7567.0,Rspan.names.long,E11names
1034,82.0,D,25.0,beef,3.0,3,beef,8159.0,Rspan.names.long,E11names
1035,82.0,S,26.0,mail,0.0,0,mail,5951.0,Rspan.names.long,E11names
1036,82.0,S,26.0,sail,1.0,1,sail,7737.0,Rspan.names.long,E11names
1037,82.0,S,26.0,trail,2.0,2,,6442.0,Rspan.names.long,E11names
1038,82.0,S,26.0,wail,3.0,3,wail,7665.0,Rspan.names.long,E11names
1039,82.0,S,26.0,tail,4.0,,,7269.0,Rspan.names.long,E11names
1040,82.0,S,26.0,jail,5.0,,,8201.0,Rspan.names.long,E11names
1041,82.0,S,27.0,blouse,0.0,0,blouse,5999.0,Rspan.names.long,E11names
1042,82.0,S,27.0,house,1.0,1,house,5903.0,Rspan.names.long,E11names
1043,82.0,S,27.0,mouse,2.0,2,mouse,5964.0,Rspan.names.long,E11names
1044,87.0,P,0.0,bath,0.0,0,bath,6728.0,Rspan.names.long,E11names
1045,87.0,P,0.0,dawn,1.0,1,dawn,8835.0,Rspan.names.long,E11names
1046,87.0,P,1.0,farm,0.0,0,farm,6452.0,Rspan.names.long,E11names
1047,87.0,P,1.0,arm,1.0,1,arm,6371.0,Rspan.names.long,E11names
1048,87.0,P,2.0,hood,0.0,0,hood,6659.0,Rspan.names.long,E11names
1049,87.0,P,2.0,wood,1.0,1,wood,6024.0,Rspan.names.long,E11names
1050,87.0,P,3.0,earth,0.0,0,earth,6320.0,Rspan.names.long,E11names
1051,87.0,P,3.0,peach,1.0,1,peach,6162.0,Rspan.names.long,E11names
1052,87.0,S,4.0,bread,0.0,0,bread,5940.0,Rspan.names.long,E11names
1053,87.0,S,4.0,head,1.0,1,head,5766.0,Rspan.names.long,E11names
1054,87.0,S,4.0,thread,2.0,2,thread,6648.0,Rspan.names.long,E11names
1055,87.0,S,4.0,bed,3.0,3,bed,5957.0,Rspan.names.long,E11names
1056,87.0,D,5.0,coin,0.0,0,coin,6044.0,Rspan.names.long,E11names
1057,87.0,D,5.0,film,1.0,1,film,6267.0,Rspan.names.long,E11names
1058,87.0,D,5.0,leaf,2.0,2,map,6008.0,Rspan.names.long,E11names
1059,87.0,D,5.0,train,3.0,3,art,6191.0,Rspan.names.long,E11names
1060,87.0,D,5.0,map,4.0,,,6719.0,Rspan.names.long,E11names
1061,87.0,D,5.0,art,5.0,,,6330.0,Rspan.names.long,E11names
1062,87.0,D,6.0,neck,0.0,0,neck,6937.0,Rspan.names.long,E11names
1063,87.0,D,6.0,town,1.0,1,town,5842.0,Rspan.names.long,E11names
1064,87.0,D,6.0,hat,2.0,2,hat,6738.0,Rspan.names.long,E11names
1065,87.0,D,6.0,street,3.0,3,street,7771.0,Rspan.names.long,E11names
1066,87.0,S,7.0,blouse,0.0,0,blouse,6233.0,Rspan.names.long,E11names
1067,87.0,S,7.0,house,1.0,1,house,6367.0,Rspan.names.long,E11names
1068,87.0,S,7.0,mouse,2.0,2,mouse,7360.0,Rspan.names.long,E11names
1069,87.0,D,8.0,rice,0.0,0,rice,6154.0,Rspan.names.long,E11names
1070,87.0,D,8.0,cat,1.0,1,cat,6939.0,Rspan.names.long,E11names
1071,87.0,D,8.0,trash,2.0,2,trash,6525.0,Rspan.names.long,E11names
1072,87.0,S,9.0,king,0.0,0,king,6880.0,Rspan.names.long,E11names
1073,87.0,S,9.0,ring,1.0,1,ring,6189.0,Rspan.names.long,E11names
1074,87.0,S,9.0,spring,2.0,2,spring,6070.0,Rspan.names.long,E11names
1075,87.0,S,9.0,string,3.0,3,string,6690.0,Rspan.names.long,E11names
1076,87.0,S,9.0,wing,4.0,4,wing,7111.0,Rspan.names.long,E11names
1077,87.0,S,10.0,doll,0.0,0,doll,6612.0,Rspan.names.long,E11names
1078,87.0,S,10.0,ball,1.0,1,ball,6427.0,Rspan.names.long,E11names
1079,87.0,S,10.0,shawl,2.0,2,shawl,6858.0,Rspan.names.long,E11names
1080,87.0,S,10.0,hall,3.0,3,hall,7399.0,Rspan.names.long,E11names
1081,87.0,S,10.0,brawl,4.0,4,brawl,8734.0,Rspan.names.long,E11names
1082,87.0,S,10.0,wall,5.0,5,wall,9278.0,Rspan.names.long,E11names
1083,87.0,D,11.0,path,0.0,0,path,6073.0,Rspan.names.long,E11names
1084,87.0,D,11.0,nest,1.0,1,nest,6487.0,Rspan.names.long,E11names
1085,87.0,D,11.0,square,2.0,2,sqaure,7331.0,Rspan.names.long,E11names
1086,87.0,D,11.0,wood,3.0,3,wood,7214.0,Rspan.names.long,E11names
1087,87.0,D,11.0,beach,4.0,4,beach,7219.0,Rspan.names.long,E11names
1088,87.0,S,12.0,bone,0.0,0,bone,7113.0,Rspan.names.long,E11names
1089,87.0,S,12.0,phone,1.0,1,phone,6500.0,Rspan.names.long,E11names
1090,87.0,S,12.0,stone,2.0,2,stone,6976.0,Rspan.names.long,E11names
1091,87.0,S,13.0,jar,0.0,0,jar,7330.0,Rspan.names.long,E11names
1092,87.0,S,13.0,bar,1.0,1,bar,7523.0,Rspan.names.long,E11names
1093,87.0,S,13.0,car,2.0,2,car,7318.0,Rspan.names.long,E11names
1094,87.0,S,13.0,scar,3.0,3,scar,8352.0,Rspan.names.long,E11names
1095,87.0,S,13.0,star,4.0,4,star,8503.0,Rspan.names.long,E11names
1096,87.0,D,14.0,ant,0.0,0,ant,6442.0,Rspan.names.long,E11names
1097,87.0,D,14.0,air,1.0,1,air,6752.0,Rspan.names.long,E11names
1098,87.0,D,14.0,ink,2.0,2,ink,8393.0,Rspan.names.long,E11names
1099,87.0,D,14.0,cloud,3.0,3,seat,9976.0,Rspan.names.long,E11names
1100,87.0,D,14.0,seat,4.0,4,cloud,8732.0,Rspan.names.long,E11names
1101,87.0,D,14.0,breath,5.0,,,9374.0,Rspan.names.long,E11names
1102,87.0,S,15.0,deer,0.0,0,deer,7314.0,Rspan.names.long,E11names
1103,87.0,S,15.0,sphere,1.0,1,sphere,7540.0,Rspan.names.long,E11names
1104,87.0,S,15.0,ear,2.0,2,ear,8358.0,Rspan.names.long,E11names
1105,87.0,S,15.0,tear,3.0,3,tear,7806.0,Rspan.names.long,E11names
1106,87.0,D,16.0,toy,0.0,0,toy,6833.0,Rspan.names.long,E11names
1107,87.0,D,16.0,wreck,1.0,1,wreck,7663.0,Rspan.names.long,E11names
1108,87.0,D,16.0,frown,2.0,2,frown,8316.0,Rspan.names.long,E11names
1109,87.0,S,17.0,boot,0.0,0,boot,5624.0,Rspan.names.long,E11names
1110,87.0,S,17.0,suit,1.0,1,suit,6304.0,Rspan.names.long,E11names
1111,87.0,S,17.0,flute,2.0,2,flute,6571.0,Rspan.names.long,E11names
1112,87.0,S,17.0,loot,3.0,3,loot,8076.0,Rspan.names.long,E11names
1113,87.0,S,17.0,root,4.0,4,brute,10000.0,Rspan.names.long,E11names
1114,87.0,S,17.0,brute,5.0,,,9941.0,Rspan.names.long,E11names
1115,87.0,D,18.0,spice,0.0,0,spice,6144.0,Rspan.names.long,E11names
1116,87.0,D,18.0,heat,1.0,1,heat,8314.0,Rspan.names.long,E11names
1117,87.0,D,18.0,shape,2.0,2,pear,8667.0,Rspan.names.long,E11names
1118,87.0,D,18.0,pear,3.0,3,shape,10366.0,Rspan.names.long,E11names
1119,87.0,D,18.0,guest,4.0,4,guest,9469.0,Rspan.names.long,E11names
1120,87.0,D,19.0,chest,0.0,0,chest,5749.0,Rspan.names.long,E11names
1121,87.0,D,19.0,lane,1.0,1,lane,6447.0,Rspan.names.long,E11names
1122,87.0,D,19.0,hair,2.0,2,hair,8637.0,Rspan.names.long,E11names
1123,87.0,D,19.0,crown,3.0,3,crown,8768.0,Rspan.names.long,E11names
1124,87.0,S,20.0,mail,0.0,0,mail,6239.0,Rspan.names.long,E11names
1125,87.0,S,20.0,sail,1.0,1,sail,9589.0,Rspan.names.long,E11names
1126,87.0,S,20.0,trail,2.0,2,trail,10363.0,Rspan.names.long,E11names
1127,87.0,S,20.0,wail,3.0,3,wail,8728.0,Rspan.names.long,E11names
1128,87.0,S,20.0,tail,4.0,4,tail,8041.0,Rspan.names.long,E11names
1129,87.0,S,20.0,jail,5.0,5,jail,8901.0,Rspan.names.long,E11names
1130,87.0,S,21.0,cream,0.0,0,cream,6099.0,Rspan.names.long,E11names
1131,87.0,S,21.0,team,1.0,1,team,6263.0,Rspan.names.long,E11names
1132,87.0,S,21.0,steam,2.0,2,steam,7789.0,Rspan.names.long,E11names
1133,87.0,D,22.0,beard,0.0,0,beard,8187.0,Rspan.names.long,E11names
1134,87.0,D,22.0,hill,1.0,1,hill,8264.0,Rspan.names.long,E11names
1135,87.0,D,22.0,dirt,2.0,2,dirt,8332.0,Rspan.names.long,E11names
1136,87.0,D,22.0,card,3.0,3,card,8878.0,Rspan.names.long,E11names
1137,87.0,D,22.0,line,4.0,4,line,8440.0,Rspan.names.long,E11names
1138,87.0,D,23.0,shell,0.0,0,shell,6074.0,Rspan.names.long,E11names
1139,87.0,D,23.0,tree,1.0,1,tree,7879.0,Rspan.names.long,E11names
1140,87.0,D,23.0,bowl,2.0,2,bowl,7699.0,Rspan.names.long,E11names
1141,87.0,D,23.0,broom,3.0,3,broom,8934.0,Rspan.names.long,E11names
1142,87.0,D,23.0,test,4.0,4,test,8254.0,Rspan.names.long,E11names
1143,87.0,D,23.0,ground,5.0,5,ground,7736.0,Rspan.names.long,E11names
1144,87.0,S,24.0,pie,0.0,0,pie,6017.0,Rspan.names.long,E11names
1145,87.0,S,24.0,fly,1.0,1,fly,7808.0,Rspan.names.long,E11names
1146,87.0,S,24.0,tie,2.0,2,tie,7391.0,Rspan.names.long,E11names
1147,87.0,S,24.0,sky,3.0,3,sky,6965.0,Rspan.names.long,E11names
1148,87.0,S,24.0,eye,4.0,4,eye,8223.0,Rspan.names.long,E11names
1149,87.0,S,25.0,band,0.0,0,band,5708.0,Rspan.names.long,E11names
1150,87.0,S,25.0,land,1.0,1,land,6224.0,Rspan.names.long,E11names
1151,87.0,S,25.0,stand,2.0,2,sand,8192.0,Rspan.names.long,E11names
1152,87.0,S,25.0,hand,3.0,3,hand,8342.0,Rspan.names.long,E11names
1153,87.0,D,26.0,deck,0.0,0,deck,7611.0,Rspan.names.long,E11names
1154,87.0,D,26.0,slice,1.0,1,slice,7561.0,Rspan.names.long,E11names
1155,87.0,D,26.0,rat,2.0,2,rat,8833.0,Rspan.names.long,E11names
1156,87.0,D,27.0,mare,0.0,0,mare,5957.0,Rspan.names.long,E11names
1157,87.0,D,27.0,bell,1.0,1,bell,8312.0,Rspan.names.long,E11names
1158,87.0,D,27.0,brain,2.0,2,brain,7922.0,Rspan.names.long,E11names
1159,87.0,D,27.0,beef,3.0,3,beef,8963.0,Rspan.names.long,E11names
1160,89.0,P,0.0,bath,0.0,0,bath,8044.0,Rspan.names.long,E11names
1161,89.0,P,0.0,dawn,1.0,1,dawn,7337.0,Rspan.names.long,E11names
1162,89.0,P,1.0,farm,0.0,0,farm,8086.0,Rspan.names.long,E11names
1163,89.0,P,1.0,arm,1.0,1,arm,7968.0,Rspan.names.long,E11names
1164,89.0,P,2.0,earth,0.0,0,earth,7566.0,Rspan.names.long,E11names
1165,89.0,P,2.0,peach,1.0,1,peach,7702.0,Rspan.names.long,E11names
1166,89.0,P,3.0,hood,0.0,0,hood,7888.0,Rspan.names.long,E11names
1167,89.0,P,3.0,wood,1.0,1,wood,7179.0,Rspan.names.long,E11names
1168,89.0,D,4.0,rice,0.0,0,rice,7063.0,Rspan.names.long,E11names
1169,89.0,D,4.0,cat,1.0,1,cat,7019.0,Rspan.names.long,E11names
1170,89.0,D,4.0,trash,2.0,2,trash,7339.0,Rspan.names.long,E11names
1171,89.0,D,5.0,coin,0.0,0,coin,7447.0,Rspan.names.long,E11names
1172,89.0,D,5.0,film,1.0,1,rice,7620.0,Rspan.names.long,E11names
1173,89.0,D,5.0,leaf,2.0,2,,9634.0,Rspan.names.long,E11names
1174,89.0,D,5.0,train,3.0,3,,8110.0,Rspan.names.long,E11names
1175,89.0,D,5.0,map,4.0,4,,8408.0,Rspan.names.long,E11names
1176,89.0,D,5.0,art,5.0,5,,7869.0,Rspan.names.long,E11names
1177,89.0,D,6.0,path,0.0,0,path,7102.0,Rspan.names.long,E11names
1178,89.0,D,6.0,nest,1.0,1,,7529.0,Rspan.names.long,E11names
1179,89.0,D,6.0,square,2.0,2,,8571.0,Rspan.names.long,E11names
1180,89.0,D,6.0,wood,3.0,3,wood,8058.0,Rspan.names.long,E11names
1181,89.0,D,6.0,beach,4.0,4,,7070.0,Rspan.names.long,E11names
1182,89.0,S,7.0,king,0.0,0,kind,6609.0,Rspan.names.long,E11names
1183,89.0,S,7.0,ring,1.0,1,ring,6592.0,Rspan.names.long,E11names
1184,89.0,S,7.0,spring,2.0,2,spring,8024.0,Rspan.names.long,E11names
1185,89.0,S,7.0,string,3.0,3,string,8110.0,Rspan.names.long,E11names
1186,89.0,S,7.0,wing,4.0,4,wing,8056.0,Rspan.names.long,E11names
1187,89.0,D,8.0,neck,0.0,0,neck,7329.0,Rspan.names.long,E11names
1188,89.0,D,8.0,town,1.0,1,town,6723.0,Rspan.names.long,E11names
1189,89.0,D,8.0,hat,2.0,2,,7918.0,Rspan.names.long,E11names
1190,89.0,D,8.0,street,3.0,3,,8503.0,Rspan.names.long,E11names
1191,89.0,S,9.0,bone,0.0,0,,6982.0,Rspan.names.long,E11names
1192,89.0,S,9.0,phone,1.0,1,bone,6750.0,Rspan.names.long,E11names
1193,89.0,S,9.0,stone,2.0,2,stone,6808.0,Rspan.names.long,E11names
1194,89.0,S,10.0,doll,0.0,0,ball,9733.0,Rspan.names.long,E11names
1195,89.0,S,10.0,ball,1.0,1,hall,7068.0,Rspan.names.long,E11names
1196,89.0,S,10.0,shawl,2.0,2,,7321.0,Rspan.names.long,E11names
1197,89.0,S,10.0,hall,3.0,3,brawl,8699.0,Rspan.names.long,E11names
1198,89.0,S,10.0,brawl,4.0,,,7605.0,Rspan.names.long,E11names
1199,89.0,S,10.0,wall,5.0,,,8123.0,Rspan.names.long,E11names
1200,89.0,S,11.0,bread,0.0,0,head,6600.0,Rspan.names.long,E11names
1201,89.0,S,11.0,head,1.0,1,thread,6648.0,Rspan.names.long,E11names
1202,89.0,S,11.0,thread,2.0,2,,6830.0,Rspan.names.long,E11names
1203,89.0,S,11.0,bed,3.0,3,bed,7805.0,Rspan.names.long,E11names
1204,89.0,S,12.0,boot,0.0,0,boot,6949.0,Rspan.names.long,E11names
1205,89.0,S,12.0,suit,1.0,1,suit,7078.0,Rspan.names.long,E11names
1206,89.0,S,12.0,flute,2.0,2,lute,7140.0,Rspan.names.long,E11names
1207,89.0,S,12.0,loot,3.0,3,,8092.0,Rspan.names.long,E11names
1208,89.0,S,12.0,root,4.0,,,7711.0,Rspan.names.long,E11names
1209,89.0,S,12.0,brute,5.0,,,8689.0,Rspan.names.long,E11names
1210,89.0,D,13.0,toy,0.0,0,toy,8744.0,Rspan.names.long,E11names
1211,89.0,D,13.0,wreck,1.0,1,wreck,7112.0,Rspan.names.long,E11names
1212,89.0,D,13.0,frown,2.0,2,frown,8707.0,Rspan.names.long,E11names
1213,89.0,S,14.0,blouse,0.0,0,blouse,8507.0,Rspan.names.long,E11names
1214,89.0,S,14.0,house,1.0,1,house,7101.0,Rspan.names.long,E11names
1215,89.0,S,14.0,mouse,2.0,2,mouse,6944.0,Rspan.names.long,E11names
1216,89.0,D,15.0,ant,0.0,0,ant,7877.0,Rspan.names.long,E11names
1217,89.0,D,15.0,air,1.0,1,air,8016.0,Rspan.names.long,E11names
1218,89.0,D,15.0,ink,2.0,2,ink,8054.0,Rspan.names.long,E11names
1219,89.0,D,15.0,cloud,3.0,3,,8738.0,Rspan.names.long,E11names
1220,89.0,D,15.0,seat,4.0,4,,7890.0,Rspan.names.long,E11names
1221,89.0,D,15.0,breath,5.0,5,breath,7021.0,Rspan.names.long,E11names
1222,89.0,S,16.0,jar,0.0,0,car,8167.0,Rspan.names.long,E11names
1223,89.0,S,16.0,bar,1.0,1,jar,7335.0,Rspan.names.long,E11names
1224,89.0,S,16.0,car,2.0,2,,8264.0,Rspan.names.long,E11names
1225,89.0,S,16.0,scar,3.0,3,,7580.0,Rspan.names.long,E11names
1226,89.0,S,16.0,star,4.0,4,star,8364.0,Rspan.names.long,E11names
1227,89.0,D,17.0,chest,0.0,0,,6627.0,Rspan.names.long,E11names
1228,89.0,D,17.0,lane,1.0,1,,7362.0,Rspan.names.long,E11names
1229,89.0,D,17.0,hair,2.0,2,hair,7042.0,Rspan.names.long,E11names
1230,89.0,D,17.0,crown,3.0,3,crown,8882.0,Rspan.names.long,E11names
1231,89.0,S,18.0,deer,0.0,0,,7329.0,Rspan.names.long,E11names
1232,89.0,S,18.0,sphere,1.0,1,ear,7211.0,Rspan.names.long,E11names
1233,89.0,S,18.0,ear,2.0,2,fear,10250.0,Rspan.names.long,E11names
1234,89.0,S,18.0,tear,3.0,3,tear,9085.0,Rspan.names.long,E11names
1235,89.0,D,19.0,spice,0.0,0,heat,7827.0,Rspan.names.long,E11names
1236,89.0,D,19.0,heat,1.0,1,spice,7392.0,Rspan.names.long,E11names
1237,89.0,D,19.0,shape,2.0,2,,8295.0,Rspan.names.long,E11names
1238,89.0,D,19.0,pear,3.0,3,,9602.0,Rspan.names.long,E11names
1239,89.0,D,19.0,guest,4.0,4,guest,7823.0,Rspan.names.long,E11names
1240,89.0,D,20.0,deck,0.0,0,deck,7088.0,Rspan.names.long,E11names
1241,89.0,D,20.0,slice,1.0,1,,7956.0,Rspan.names.long,E11names
1242,89.0,D,20.0,rat,2.0,2,rat,8204.0,Rspan.names.long,E11names
1243,89.0,S,21.0,pie,0.0,0,fly,7033.0,Rspan.names.long,E11names
1244,89.0,S,21.0,fly,1.0,1,tie,6807.0,Rspan.names.long,E11names
1245,89.0,S,21.0,tie,2.0,2,sky,8664.0,Rspan.names.long,E11names
1246,89.0,S,21.0,sky,3.0,3,eye,8601.0,Rspan.names.long,E11names
1247,89.0,S,21.0,eye,4.0,,,7206.0,Rspan.names.long,E11names
1248,89.0,D,22.0,beard,0.0,0,beard,7561.0,Rspan.names.long,E11names
1249,89.0,D,22.0,hill,1.0,1,hill,8106.0,Rspan.names.long,E11names
1250,89.0,D,22.0,dirt,2.0,2,dirt,7900.0,Rspan.names.long,E11names
1251,89.0,D,22.0,card,3.0,3,,8839.0,Rspan.names.long,E11names
1252,89.0,D,22.0,line,4.0,4,line,8922.0,Rspan.names.long,E11names
1253,89.0,D,23.0,shell,0.0,0,,7146.0,Rspan.names.long,E11names
1254,89.0,D,23.0,tree,1.0,1,,6748.0,Rspan.names.long,E11names
1255,89.0,D,23.0,bowl,2.0,2,broom,6813.0,Rspan.names.long,E11names
1256,89.0,D,23.0,broom,3.0,3,test,7981.0,Rspan.names.long,E11names
1257,89.0,D,23.0,test,4.0,,,8924.0,Rspan.names.long,E11names
1258,89.0,D,23.0,ground,5.0,,,8973.0,Rspan.names.long,E11names
1259,89.0,D,24.0,mare,0.0,0,,7757.0,Rspan.names.long,E11names
1260,89.0,D,24.0,bell,1.0,1,bell,6886.0,Rspan.names.long,E11names
1261,89.0,D,24.0,brain,2.0,2,brain,9130.0,Rspan.names.long,E11names
1262,89.0,D,24.0,beef,3.0,3,beef,7298.0,Rspan.names.long,E11names
1263,89.0,S,25.0,band,0.0,0,band,6149.0,Rspan.names.long,E11names
1264,89.0,S,25.0,land,1.0,1,land,7143.0,Rspan.names.long,E11names
1265,89.0,S,25.0,stand,2.0,2,stand,7616.0,Rspan.names.long,E11names
1266,89.0,S,25.0,hand,3.0,3,hand,9039.0,Rspan.names.long,E11names
1267,89.0,S,26.0,mail,0.0,0,,6654.0,Rspan.names.long,E11names
1268,89.0,S,26.0,sail,1.0,1,,7219.0,Rspan.names.long,E11names
1269,89.0,S,26.0,trail,2.0,2,wail,7129.0,Rspan.names.long,E11names
1270,89.0,S,26.0,wail,3.0,3,tail,7883.0,Rspan.names.long,E11names
1271,89.0,S,26.0,tail,4.0,4,jail,9063.0,Rspan.names.long,E11names
1272,89.0,S,26.0,jail,5.0,,,8354.0,Rspan.names.long,E11names
1273,89.0,S,27.0,cream,0.0,0,cream,6632.0,Rspan.names.long,E11names
1274,89.0,S,27.0,team,1.0,1,team,6767.0,Rspan.names.long,E11names
1275,89.0,S,27.0,steam,2.0,2,steam,7343.0,Rspan.names.long,E11names
1276,90.0,P,0.0,bath,0.0,0,bath,10048.0,Rspan.names.long,E11names
1277,90.0,P,0.0,dawn,1.0,1,dawn,14339.0,Rspan.names.long,E11names
1278,90.0,P,1.0,hood,0.0,0,hood,14255.0,Rspan.names.long,E11names
1279,90.0,P,1.0,wood,1.0,1,wood,7502.0,Rspan.names.long,E11names
1280,90.0,P,2.0,farm,0.0,0,farm,7729.0,Rspan.names.long,E11names
1281,90.0,P,2.0,arm,1.0,1,arm,8027.0,Rspan.names.long,E11names
1282,90.0,P,3.0,earth,0.0,0,earth,7662.0,Rspan.names.long,E11names
1283,90.0,P,3.0,peach,1.0,1,peach,8586.0,Rspan.names.long,E11names
1284,90.0,D,4.0,rice,0.0,0,rice,7584.0,Rspan.names.long,E11names
1285,90.0,D,4.0,cat,1.0,1,cat,6896.0,Rspan.names.long,E11names
1286,90.0,D,4.0,trash,2.0,2,trash,7203.0,Rspan.names.long,E11names
1287,90.0,D,5.0,coin,0.0,0,coin,8549.0,Rspan.names.long,E11names
1288,90.0,D,5.0,film,1.0,1,film,7621.0,Rspan.names.long,E11names
1289,90.0,D,5.0,leaf,2.0,2,,9411.0,Rspan.names.long,E11names
1290,90.0,D,5.0,train,3.0,3,,8568.0,Rspan.names.long,E11names
1291,90.0,D,5.0,map,4.0,4,art,8311.0,Rspan.names.long,E11names
1292,90.0,D,5.0,art,5.0,,,7280.0,Rspan.names.long,E11names
1293,90.0,S,6.0,doll,0.0,0,doll,7068.0,Rspan.names.long,E11names
1294,90.0,S,6.0,ball,1.0,1,ball,8056.0,Rspan.names.long,E11names
1295,90.0,S,6.0,shawl,2.0,2,shawl,7076.0,Rspan.names.long,E11names
1296,90.0,S,6.0,hall,3.0,3,hall,8544.0,Rspan.names.long,E11names
1297,90.0,S,6.0,brawl,4.0,4,brawl,6961.0,Rspan.names.long,E11names
1298,90.0,S,6.0,wall,5.0,5,,8482.0,Rspan.names.long,E11names
1299,90.0,D,7.0,path,0.0,0,path,6529.0,Rspan.names.long,E11names
1300,90.0,D,7.0,nest,1.0,1,nest,7379.0,Rspan.names.long,E11names
1301,90.0,D,7.0,square,2.0,2,square,8411.0,Rspan.names.long,E11names
1302,90.0,D,7.0,wood,3.0,3,beach,8481.0,Rspan.names.long,E11names
1303,90.0,D,7.0,beach,4.0,,,7204.0,Rspan.names.long,E11names
1304,90.0,S,8.0,cream,0.0,0,cream,6717.0,Rspan.names.long,E11names
1305,90.0,S,8.0,team,1.0,1,team,7448.0,Rspan.names.long,E11names
1306,90.0,S,8.0,steam,2.0,2,steam,9725.0,Rspan.names.long,E11names
1307,90.0,S,9.0,bread,0.0,0,bread,6664.0,Rspan.names.long,E11names
1308,90.0,S,9.0,head,1.0,1,head,6998.0,Rspan.names.long,E11names
1309,90.0,S,9.0,thread,2.0,2,thread,6949.0,Rspan.names.long,E11names
1310,90.0,S,9.0,bed,3.0,3,bed,7447.0,Rspan.names.long,E11names
1311,90.0,D,10.0,neck,0.0,0,neck,6666.0,Rspan.names.long,E11names
1312,90.0,D,10.0,town,1.0,1,town,7239.0,Rspan.names.long,E11names
1313,90.0,D,10.0,hat,2.0,2,hat,7580.0,Rspan.names.long,E11names
1314,90.0,D,10.0,street,3.0,3,street,7556.0,Rspan.names.long,E11names
1315,90.0,S,11.0,king,0.0,0,king,7321.0,Rspan.names.long,E11names
1316,90.0,S,11.0,ring,1.0,1,ring,6891.0,Rspan.names.long,E11names
1317,90.0,S,11.0,spring,2.0,2,spring,6703.0,Rspan.names.long,E11names
1318,90.0,S,11.0,string,3.0,3,string,7034.0,Rspan.names.long,E11names
1319,90.0,S,11.0,wing,4.0,4,wing,9856.0,Rspan.names.long,E11names
1320,90.0,D,12.0,toy,0.0,0,toy,8034.0,Rspan.names.long,E11names
1321,90.0,D,12.0,wreck,1.0,1,wreck,6791.0,Rspan.names.long,E11names
1322,90.0,D,12.0,frown,2.0,2,frown,6751.0,Rspan.names.long,E11names
1323,90.0,D,13.0,chest,0.0,0,chest,6622.0,Rspan.names.long,E11names
1324,90.0,D,13.0,lane,1.0,1,lane,6229.0,Rspan.names.long,E11names
1325,90.0,D,13.0,hair,2.0,2,hair,7684.0,Rspan.names.long,E11names
1326,90.0,D,13.0,crown,3.0,3,crown,8135.0,Rspan.names.long,E11names
1327,90.0,S,14.0,boot,0.0,0,boot,6619.0,Rspan.names.long,E11names
1328,90.0,S,14.0,suit,1.0,1,suit,6610.0,Rspan.names.long,E11names
1329,90.0,S,14.0,flute,2.0,2,flute,7185.0,Rspan.names.long,E11names
1330,90.0,S,14.0,loot,3.0,3,loot,7489.0,Rspan.names.long,E11names
1331,90.0,S,14.0,root,4.0,4,root,7596.0,Rspan.names.long,E11names
1332,90.0,S,14.0,brute,5.0,5,,8555.0,Rspan.names.long,E11names
1333,90.0,D,15.0,ant,0.0,0,ant,7510.0,Rspan.names.long,E11names
1334,90.0,D,15.0,air,1.0,1,air,6561.0,Rspan.names.long,E11names
1335,90.0,D,15.0,ink,2.0,2,ink,8154.0,Rspan.names.long,E11names
1336,90.0,D,15.0,cloud,3.0,3,cloud,8602.0,Rspan.names.long,E11names
1337,90.0,D,15.0,seat,4.0,4,seat,8528.0,Rspan.names.long,E11names
1338,90.0,D,15.0,breath,5.0,5,breath,7984.0,Rspan.names.long,E11names
1339,90.0,D,16.0,spice,0.0,0,spice,6485.0,Rspan.names.long,E11names
1340,90.0,D,16.0,heat,1.0,1,heat,6529.0,Rspan.names.long,E11names
1341,90.0,D,16.0,shape,2.0,2,shape,8564.0,Rspan.names.long,E11names
1342,90.0,D,16.0,pear,3.0,3,pear,8019.0,Rspan.names.long,E11names
1343,90.0,D,16.0,guest,4.0,4,,8953.0,Rspan.names.long,E11names
1344,90.0,S,17.0,deer,0.0,0,deer,6612.0,Rspan.names.long,E11names
1345,90.0,S,17.0,sphere,1.0,1,sphere,6276.0,Rspan.names.long,E11names
1346,90.0,S,17.0,ear,2.0,2,ear,7321.0,Rspan.names.long,E11names
1347,90.0,S,17.0,tear,3.0,3,tear,7747.0,Rspan.names.long,E11names
1348,90.0,S,18.0,blouse,0.0,0,blouse,6669.0,Rspan.names.long,E11names
1349,90.0,S,18.0,house,1.0,1,house,6578.0,Rspan.names.long,E11names
1350,90.0,S,18.0,mouse,2.0,2,mouse,7211.0,Rspan.names.long,E11names
1351,90.0,S,19.0,jar,0.0,0,jar,6630.0,Rspan.names.long,E11names
1352,90.0,S,19.0,bar,1.0,1,bar,6452.0,Rspan.names.long,E11names
1353,90.0,S,19.0,car,2.0,2,car,7266.0,Rspan.names.long,E11names
1354,90.0,S,19.0,scar,3.0,3,scar,7951.0,Rspan.names.long,E11names
1355,90.0,S,19.0,star,4.0,4,star,8903.0,Rspan.names.long,E11names
1356,90.0,D,20.0,beard,0.0,0,beard,6379.0,Rspan.names.long,E11names
1357,90.0,D,20.0,hill,1.0,1,hill,7572.0,Rspan.names.long,E11names
1358,90.0,D,20.0,dirt,2.0,2,dirt,8252.0,Rspan.names.long,E11names
1359,90.0,D,20.0,card,3.0,3,card,7952.0,Rspan.names.long,E11names
1360,90.0,D,20.0,line,4.0,4,line,8040.0,Rspan.names.long,E11names
1361,90.0,S,21.0,pie,0.0,0,fly,6354.0,Rspan.names.long,E11names
1362,90.0,S,21.0,fly,1.0,1,pie,5484.0,Rspan.names.long,E11names
1363,90.0,S,21.0,tie,2.0,2,tie,5633.0,Rspan.names.long,E11names
1364,90.0,S,21.0,sky,3.0,3,sky,8040.0,Rspan.names.long,E11names
1365,90.0,S,21.0,eye,4.0,4,eye,6901.0,Rspan.names.long,E11names
1366,90.0,D,22.0,deck,0.0,0,deck,5653.0,Rspan.names.long,E11names
1367,90.0,D,22.0,slice,1.0,1,slice,7011.0,Rspan.names.long,E11names
1368,90.0,D,22.0,rat,2.0,2,rat,8922.0,Rspan.names.long,E11names
1369,90.0,S,23.0,bone,0.0,0,bone,6397.0,Rspan.names.long,E11names
1370,90.0,S,23.0,phone,1.0,1,phone,5989.0,Rspan.names.long,E11names
1371,90.0,S,23.0,stone,2.0,2,stone,9094.0,Rspan.names.long,E11names
1372,90.0,D,24.0,shell,0.0,0,shell,6204.0,Rspan.names.long,E11names
1373,90.0,D,24.0,tree,1.0,1,tree,6332.0,Rspan.names.long,E11names
1374,90.0,D,24.0,bowl,2.0,2,bowl,7639.0,Rspan.names.long,E11names
1375,90.0,D,24.0,broom,3.0,3,broom,8764.0,Rspan.names.long,E11names
1376,90.0,D,24.0,test,4.0,4,test,8859.0,Rspan.names.long,E11names
1377,90.0,D,24.0,ground,5.0,5,ground,8422.0,Rspan.names.long,E11names
1378,90.0,D,25.0,mare,0.0,0,mare,6442.0,Rspan.names.long,E11names
1379,90.0,D,25.0,bell,1.0,1,bell,5992.0,Rspan.names.long,E11names
1380,90.0,D,25.0,brain,2.0,2,brain,5568.0,Rspan.names.long,E11names
1381,90.0,D,25.0,beef,3.0,3,beef,6266.0,Rspan.names.long,E11names
1382,90.0,S,26.0,mail,0.0,0,mail,5273.0,Rspan.names.long,E11names
1383,90.0,S,26.0,sail,1.0,1,sail,6175.0,Rspan.names.long,E11names
1384,90.0,S,26.0,trail,2.0,2,trail,7544.0,Rspan.names.long,E11names
1385,90.0,S,26.0,wail,3.0,3,wail,7201.0,Rspan.names.long,E11names
1386,90.0,S,26.0,tail,4.0,4,,6536.0,Rspan.names.long,E11names
1387,90.0,S,26.0,jail,5.0,5,,5898.0,Rspan.names.long,E11names
1388,90.0,S,27.0,band,0.0,0,band,5830.0,Rspan.names.long,E11names
1389,90.0,S,27.0,land,1.0,1,land,6262.0,Rspan.names.long,E11names
1390,90.0,S,27.0,stand,2.0,2,stand,9340.0,Rspan.names.long,E11names
1391,90.0,S,27.0,hand,3.0,3,hand,10147.0,Rspan.names.long,E11names
1392,91.0,P,0.0,hood,0.0,0,hood,9550.0,Rspan.names.long,E11names
1393,91.0,P,0.0,wood,1.0,1,wood,7629.0,Rspan.names.long,E11names
1394,91.0,P,1.0,earth,0.0,0,earth,6844.0,Rspan.names.long,E11names
1395,91.0,P,1.0,peach,1.0,1,peach,6626.0,Rspan.names.long,E11names
1396,91.0,P,2.0,bath,0.0,0,bath,6702.0,Rspan.names.long,E11names
1397,91.0,P,2.0,dawn,1.0,1,dawn,6208.0,Rspan.names.long,E11names
1398,91.0,P,3.0,farm,0.0,0,farm,6538.0,Rspan.names.long,E11names
1399,91.0,P,3.0,arm,1.0,1,arm,6317.0,Rspan.names.long,E11names
1400,91.0,D,4.0,path,0.0,0,path,6788.0,Rspan.names.long,E11names
1401,91.0,D,4.0,nest,1.0,1,nest,6252.0,Rspan.names.long,E11names
1402,91.0,D,4.0,square,2.0,2,square,7169.0,Rspan.names.long,E11names
1403,91.0,D,4.0,wood,3.0,3,wood,6842.0,Rspan.names.long,E11names
1404,91.0,D,4.0,beach,4.0,4,,6951.0,Rspan.names.long,E11names
1405,91.0,D,5.0,coin,0.0,0,coin,6990.0,Rspan.names.long,E11names
1406,91.0,D,5.0,film,1.0,1,film,6631.0,Rspan.names.long,E11names
1407,91.0,D,5.0,leaf,2.0,2,leaf,6413.0,Rspan.names.long,E11names
1408,91.0,D,5.0,train,3.0,3,train,6516.0,Rspan.names.long,E11names
1409,91.0,D,5.0,map,4.0,4,map,6576.0,Rspan.names.long,E11names
1410,91.0,D,5.0,art,5.0,5,art,6432.0,Rspan.names.long,E11names
1411,91.0,S,6.0,bread,0.0,0,bread,6843.0,Rspan.names.long,E11names
1412,91.0,S,6.0,head,1.0,1,head,6330.0,Rspan.names.long,E11names
1413,91.0,S,6.0,thread,2.0,2,thread,6525.0,Rspan.names.long,E11names
1414,91.0,S,6.0,bed,3.0,3,bed,6559.0,Rspan.names.long,E11names
1415,91.0,S,7.0,doll,0.0,0,doll,7207.0,Rspan.names.long,E11names
1416,91.0,S,7.0,ball,1.0,1,ball,6317.0,Rspan.names.long,E11names
1417,91.0,S,7.0,shawl,2.0,2,hall,6609.0,Rspan.names.long,E11names
1418,91.0,S,7.0,hall,3.0,3,shawl,6487.0,Rspan.names.long,E11names
1419,91.0,S,7.0,brawl,4.0,4,brawl,6459.0,Rspan.names.long,E11names
1420,91.0,S,7.0,wall,5.0,5,,6969.0,Rspan.names.long,E11names
1421,91.0,D,8.0,rice,0.0,0,rice,7346.0,Rspan.names.long,E11names
1422,91.0,D,8.0,cat,1.0,1,cat,6707.0,Rspan.names.long,E11names
1423,91.0,D,8.0,trash,2.0,2,trash,6878.0,Rspan.names.long,E11names
1424,91.0,S,9.0,blouse,0.0,0,blouse,7225.0,Rspan.names.long,E11names
1425,91.0,S,9.0,house,1.0,1,house,6856.0,Rspan.names.long,E11names
1426,91.0,S,9.0,mouse,2.0,2,mouse,6684.0,Rspan.names.long,E11names
1427,91.0,S,10.0,king,0.0,0,king,7040.0,Rspan.names.long,E11names
1428,91.0,S,10.0,ring,1.0,1,ring,6254.0,Rspan.names.long,E11names
1429,91.0,S,10.0,spring,2.0,2,,6251.0,Rspan.names.long,E11names
1430,91.0,S,10.0,string,3.0,3,string,6401.0,Rspan.names.long,E11names
1431,91.0,S,10.0,wing,4.0,4,wing,6897.0,Rspan.names.long,E11names
1432,91.0,D,11.0,neck,0.0,0,neck,7410.0,Rspan.names.long,E11names
1433,91.0,D,11.0,town,1.0,1,town,6402.0,Rspan.names.long,E11names
1434,91.0,D,11.0,hat,2.0,2,hat,6793.0,Rspan.names.long,E11names
1435,91.0,D,11.0,street,3.0,3,street,6801.0,Rspan.names.long,E11names
1436,91.0,S,12.0,jar,0.0,0,,7484.0,Rspan.names.long,E11names
1437,91.0,S,12.0,bar,1.0,1,bar,6424.0,Rspan.names.long,E11names
1438,91.0,S,12.0,car,2.0,2,car,6815.0,Rspan.names.long,E11names
1439,91.0,S,12.0,scar,3.0,3,scar,6398.0,Rspan.names.long,E11names
1440,91.0,S,12.0,star,4.0,4,star,6774.0,Rspan.names.long,E11names
1441,91.0,D,13.0,chest,0.0,0,chest,7359.0,Rspan.names.long,E11names
1442,91.0,D,13.0,lane,1.0,1,lane,6551.0,Rspan.names.long,E11names
1443,91.0,D,13.0,hair,2.0,2,,6729.0,Rspan.names.long,E11names
1444,91.0,D,13.0,crown,3.0,3,crown,6476.0,Rspan.names.long,E11names
1445,91.0,D,14.0,toy,0.0,0,toy,7212.0,Rspan.names.long,E11names
1446,91.0,D,14.0,wreck,1.0,1,wreck,6755.0,Rspan.names.long,E11names
1447,91.0,D,14.0,frown,2.0,2,frown,7172.0,Rspan.names.long,E11names
1448,91.0,S,15.0,boot,0.0,0,boot,6845.0,Rspan.names.long,E11names
1449,91.0,S,15.0,suit,1.0,1,suit,6826.0,Rspan.names.long,E11names
1450,91.0,S,15.0,flute,2.0,2,flute,7225.0,Rspan.names.long,E11names
1451,91.0,S,15.0,loot,3.0,3,loot,7015.0,Rspan.names.long,E11names
1452,91.0,S,15.0,root,4.0,4,brute,7525.0,Rspan.names.long,E11names
1453,91.0,S,15.0,brute,5.0,5,root,7055.0,Rspan.names.long,E11names
1454,91.0,S,16.0,cream,0.0,0,cream,7227.0,Rspan.names.long,E11names
1455,91.0,S,16.0,team,1.0,1,team,6665.0,Rspan.names.long,E11names
1456,91.0,S,16.0,steam,2.0,2,steam,6703.0,Rspan.names.long,E11names
1457,91.0,S,17.0,deer,0.0,0,deer,7467.0,Rspan.names.long,E11names
1458,91.0,S,17.0,sphere,1.0,1,sphere,7144.0,Rspan.names.long,E11names
1459,91.0,S,17.0,ear,2.0,2,ear,7377.0,Rspan.names.long,E11names
1460,91.0,S,17.0,tear,3.0,3,tear,7362.0,Rspan.names.long,E11names
1461,91.0,D,18.0,spice,0.0,0,spice,8667.0,Rspan.names.long,E11names
1462,91.0,D,18.0,heat,1.0,1,heat,6487.0,Rspan.names.long,E11names
1463,91.0,D,18.0,shape,2.0,2,shape,6659.0,Rspan.names.long,E11names
1464,91.0,D,18.0,pear,3.0,3,,7423.0,Rspan.names.long,E11names
1465,91.0,D,18.0,guest,4.0,4,pear,7038.0,Rspan.names.long,E11names
1466,91.0,D,19.0,ant,0.0,0,ant,7556.0,Rspan.names.long,E11names
1467,91.0,D,19.0,air,1.0,1,air,7141.0,Rspan.names.long,E11names
1468,91.0,D,19.0,ink,2.0,2,ink,6846.0,Rspan.names.long,E11names
1469,91.0,D,19.0,cloud,3.0,3,cloud,7229.0,Rspan.names.long,E11names
1470,91.0,D,19.0,seat,4.0,4,seat,6923.0,Rspan.names.long,E11names
1471,91.0,D,19.0,breath,5.0,5,breath,7020.0,Rspan.names.long,E11names
1472,91.0,D,20.0,shell,0.0,0,shell,7394.0,Rspan.names.long,E11names
1473,91.0,D,20.0,tree,1.0,1,tree,7130.0,Rspan.names.long,E11names
1474,91.0,D,20.0,bowl,2.0,2,bowl,6828.0,Rspan.names.long,E11names
1475,91.0,D,20.0,broom,3.0,3,broom,7002.0,Rspan.names.long,E11names
1476,91.0,D,20.0,test,4.0,4,test,6953.0,Rspan.names.long,E11names
1477,91.0,D,20.0,ground,5.0,5,ground,7203.0,Rspan.names.long,E11names
1478,91.0,D,21.0,beard,0.0,0,beard,7073.0,Rspan.names.long,E11names
1479,91.0,D,21.0,hill,1.0,1,hill,6860.0,Rspan.names.long,E11names
1480,91.0,D,21.0,dirt,2.0,2,dirt,6986.0,Rspan.names.long,E11names
1481,91.0,D,21.0,card,3.0,3,card,6914.0,Rspan.names.long,E11names
1482,91.0,D,21.0,line,4.0,4,line,6925.0,Rspan.names.long,E11names
1483,91.0,D,22.0,mare,0.0,0,mare,7290.0,Rspan.names.long,E11names
1484,91.0,D,22.0,bell,1.0,1,bell,6943.0,Rspan.names.long,E11names
1485,91.0,D,22.0,brain,2.0,2,brain,6776.0,Rspan.names.long,E11names
1486,91.0,D,22.0,beef,3.0,3,beef,7176.0,Rspan.names.long,E11names
1487,91.0,D,23.0,deck,0.0,0,deck,7308.0,Rspan.names.long,E11names
1488,91.0,D,23.0,slice,1.0,1,slice,7158.0,Rspan.names.long,E11names
1489,91.0,D,23.0,rat,2.0,2,rat,7416.0,Rspan.names.long,E11names
1490,91.0,S,24.0,mail,0.0,0,mail,6773.0,Rspan.names.long,E11names
1491,91.0,S,24.0,sail,1.0,1,sail,6822.0,Rspan.names.long,E11names
1492,91.0,S,24.0,trail,2.0,2,trail,6747.0,Rspan.names.long,E11names
1493,91.0,S,24.0,wail,3.0,3,,7198.0,Rspan.names.long,E11names
1494,91.0,S,24.0,tail,4.0,4,wail,6901.0,Rspan.names.long,E11names
1495,91.0,S,24.0,jail,5.0,5,jail,7272.0,Rspan.names.long,E11names
1496,91.0,S,25.0,band,0.0,0,band,7140.0,Rspan.names.long,E11names
1497,91.0,S,25.0,land,1.0,1,land,6573.0,Rspan.names.long,E11names
1498,91.0,S,25.0,stand,2.0,2,stand,6054.0,Rspan.names.long,E11names
1499,91.0,S,25.0,hand,3.0,3,hand,6653.0,Rspan.names.long,E11names
1500,91.0,S,26.0,pie,0.0,0,pie,6998.0,Rspan.names.long,E11names
1501,91.0,S,26.0,fly,1.0,1,fly,6454.0,Rspan.names.long,E11names
1502,91.0,S,26.0,tie,2.0,2,try,6723.0,Rspan.names.long,E11names
1503,91.0,S,26.0,sky,3.0,3,sky,6741.0,Rspan.names.long,E11names
1504,91.0,S,26.0,eye,4.0,4,,6519.0,Rspan.names.long,E11names
1505,91.0,S,27.0,bone,0.0,0,bone,7101.0,Rspan.names.long,E11names
1506,91.0,S,27.0,phone,1.0,1,phone,6769.0,Rspan.names.long,E11names
1507,91.0,S,27.0,stone,2.0,2,stone,6713.0,Rspan.names.long,E11names
1508,92.0,P,0.0,hood,0.0,0,hood,6366.0,Rspan.names.long,E11names
1509,92.0,P,0.0,wood,1.0,1,wood,5559.0,Rspan.names.long,E11names
1510,92.0,P,1.0,earth,0.0,0,earth,7975.0,Rspan.names.long,E11names
1511,92.0,P,1.0,peach,1.0,1,peach,5344.0,Rspan.names.long,E11names
1512,92.0,P,2.0,farm,0.0,0,farm,5141.0,Rspan.names.long,E11names
1513,92.0,P,2.0,arm,1.0,1,arm,5432.0,Rspan.names.long,E11names
1514,92.0,P,3.0,bath,0.0,0,bath,4888.0,Rspan.names.long,E11names
1515,92.0,P,3.0,dawn,1.0,1,dawn,5462.0,Rspan.names.long,E11names
1516,92.0,D,4.0,neck,0.0,0,neck,5005.0,Rspan.names.long,E11names
1517,92.0,D,4.0,town,1.0,1,town,5190.0,Rspan.names.long,E11names
1518,92.0,D,4.0,hat,2.0,2,hat,5462.0,Rspan.names.long,E11names
1519,92.0,D,4.0,street,3.0,3,street,5645.0,Rspan.names.long,E11names
1520,92.0,S,5.0,cream,0.0,0,cream,5304.0,Rspan.names.long,E11names
1521,92.0,S,5.0,team,1.0,1,team,5902.0,Rspan.names.long,E11names
1522,92.0,S,5.0,steam,2.0,2,steam,5354.0,Rspan.names.long,E11names
1523,92.0,D,6.0,path,0.0,0,path,5082.0,Rspan.names.long,E11names
1524,92.0,D,6.0,nest,1.0,1,nest,5808.0,Rspan.names.long,E11names
1525,92.0,D,6.0,square,2.0,2,square,5280.0,Rspan.names.long,E11names
1526,92.0,D,6.0,wood,3.0,3,wood,5677.0,Rspan.names.long,E11names
1527,92.0,D,6.0,beach,4.0,4,beach,5395.0,Rspan.names.long,E11names
1528,92.0,D,7.0,rice,0.0,0,rice,6188.0,Rspan.names.long,E11names
1529,92.0,D,7.0,cat,1.0,1,cat,5789.0,Rspan.names.long,E11names
1530,92.0,D,7.0,trash,2.0,2,trash,8389.0,Rspan.names.long,E11names
1531,92.0,S,8.0,king,0.0,0,king,5272.0,Rspan.names.long,E11names
1532,92.0,S,8.0,ring,1.0,1,ring,5389.0,Rspan.names.long,E11names
