,Subject,trialtype,trialnum,TBR,inpos,outpos,resp,dist_RT,task,folder
0,103.0,P,0.0,farm,0.0,0,farm,8817.0,Rspan.names.short,E11names
1,103.0,P,0.0,arm,1.0,1,arm,7262.0,Rspan.names.short,E11names
2,103.0,P,1.0,bath,0.0,0,bath,7288.0,Rspan.names.short,E11names
3,103.0,P,1.0,dawn,1.0,1,dawn,6259.0,Rspan.names.short,E11names
4,103.0,P,2.0,hood,0.0,0,,6807.0,Rspan.names.short,E11names
5,103.0,P,2.0,wood,1.0,1,wood,6822.0,Rspan.names.short,E11names
6,103.0,P,3.0,earth,0.0,0,earth,5672.0,Rspan.names.short,E11names
7,103.0,P,3.0,peach,1.0,1,peach,5606.0,Rspan.names.short,E11names
8,103.0,D,4.0,path,0.0,0,peach,6067.0,Rspan.names.short,E11names
9,103.0,D,4.0,nest,1.0,1,,6496.0,Rspan.names.short,E11names
10,103.0,D,4.0,square,2.0,2,square,7972.0,Rspan.names.short,E11names
11,103.0,D,4.0,wood,3.0,3,wood,7635.0,Rspan.names.short,E11names
12,103.0,D,4.0,beach,4.0,4,beach,8481.0,Rspan.names.short,E11names
13,103.0,D,5.0,coin,0.0,0,coin,6466.0,Rspan.names.short,E11names
14,103.0,D,5.0,film,1.0,1,film,7485.0,Rspan.names.short,E11names
15,103.0,D,5.0,leaf,2.0,2,train,7641.0,Rspan.names.short,E11names
16,103.0,D,5.0,train,3.0,3,leaf,7294.0,Rspan.names.short,E11names
17,103.0,D,5.0,map,4.0,4,art,7825.0,Rspan.names.short,E11names
18,103.0,D,5.0,art,5.0,,,7871.0,Rspan.names.short,E11names
19,103.0,S,6.0,doll,0.0,0,doll,6398.0,Rspan.names.short,E11names
20,103.0,S,6.0,ball,1.0,1,ball,6102.0,Rspan.names.short,E11names
21,103.0,S,6.0,shawl,2.0,2,shawl,7906.0,Rspan.names.short,E11names
22,103.0,S,6.0,hall,3.0,3,brawl,8276.0,Rspan.names.short,E11names
23,103.0,S,6.0,brawl,4.0,4,wall,6351.0,Rspan.names.short,E11names
24,103.0,S,6.0,wall,5.0,,,8913.0,Rspan.names.short,E11names
25,103.0,D,7.0,rice,0.0,0,rice,7278.0,Rspan.names.short,E11names
26,103.0,D,7.0,cat,1.0,1,cat,6914.0,Rspan.names.short,E11names
27,103.0,D,7.0,trash,2.0,2,trash,8269.0,Rspan.names.short,E11names
28,103.0,S,8.0,bone,0.0,0,bone,7035.0,Rspan.names.short,E11names
29,103.0,S,8.0,phone,1.0,1,phone,7240.0,Rspan.names.short,E11names
30,103.0,S,8.0,stone,2.0,2,stone,6870.0,Rspan.names.short,E11names
31,103.0,S,9.0,king,0.0,0,king,6992.0,Rspan.names.short,E11names
32,103.0,S,9.0,ring,1.0,1,ring,7480.0,Rspan.names.short,E11names
33,103.0,S,9.0,spring,2.0,2,string,6860.0,Rspan.names.short,E11names
34,103.0,S,9.0,string,3.0,3,wing,6961.0,Rspan.names.short,E11names
35,103.0,S,9.0,wing,4.0,,,7755.0,Rspan.names.short,E11names
36,103.0,D,10.0,neck,0.0,0,neck,6342.0,Rspan.names.short,E11names
37,103.0,D,10.0,town,1.0,1,town,6472.0,Rspan.names.short,E11names
38,103.0,D,10.0,hat,2.0,2,street,7533.0,Rspan.names.short,E11names
39,103.0,D,10.0,street,3.0,,,8526.0,Rspan.names.short,E11names
40,103.0,S,11.0,bread,0.0,0,bread,6322.0,Rspan.names.short,E11names
41,103.0,S,11.0,head,1.0,1,head,6037.0,Rspan.names.short,E11names
42,103.0,S,11.0,thread,2.0,2,thread,7332.0,Rspan.names.short,E11names
43,103.0,S,11.0,bed,3.0,3,bed,7685.0,Rspan.names.short,E11names
44,103.0,S,12.0,deer,0.0,0,deer,6485.0,Rspan.names.short,E11names
45,103.0,S,12.0,sphere,1.0,1,sphere,5442.0,Rspan.names.short,E11names
46,103.0,S,12.0,ear,2.0,2,tear,5273.0,Rspan.names.short,E11names
47,103.0,S,12.0,tear,3.0,,,7151.0,Rspan.names.short,E11names
48,103.0,D,13.0,spice,0.0,0,spice,6511.0,Rspan.names.short,E11names
49,103.0,D,13.0,heat,1.0,1,heat,6666.0,Rspan.names.short,E11names
50,103.0,D,13.0,shape,2.0,2,shape,6167.0,Rspan.names.short,E11names
51,103.0,D,13.0,pear,3.0,3,pear,7016.0,Rspan.names.short,E11names
52,103.0,D,13.0,guest,4.0,4,guest,7495.0,Rspan.names.short,E11names
53,103.0,D,14.0,ant,0.0,0,ant,6205.0,Rspan.names.short,E11names
54,103.0,D,14.0,air,1.0,1,air,7909.0,Rspan.names.short,E11names
55,103.0,D,14.0,ink,2.0,2,ink,7495.0,Rspan.names.short,E11names
56,103.0,D,14.0,cloud,3.0,3,seat,8570.0,Rspan.names.short,E11names
57,103.0,D,14.0,seat,4.0,4,breath,9233.0,Rspan.names.short,E11names
58,103.0,D,14.0,breath,5.0,,,8077.0,Rspan.names.short,E11names
59,103.0,S,15.0,boot,0.0,0,boot,5660.0,Rspan.names.short,E11names
60,103.0,S,15.0,suit,1.0,1,suit,6513.0,Rspan.names.short,E11names
61,103.0,S,15.0,flute,2.0,2,flute,7060.0,Rspan.names.short,E11names
62,103.0,S,15.0,loot,3.0,3,loot,7337.0,Rspan.names.short,E11names
63,103.0,S,15.0,root,4.0,4,brute,9111.0,Rspan.names.short,E11names
64,103.0,S,15.0,brute,5.0,,,8504.0,Rspan.names.short,E11names
65,103.0,D,16.0,toy,0.0,0,toy,5945.0,Rspan.names.short,E11names
66,103.0,D,16.0,wreck,1.0,1,wreck,6419.0,Rspan.names.short,E11names
67,103.0,D,16.0,frown,2.0,2,frown,7306.0,Rspan.names.short,E11names
68,103.0,D,17.0,chest,0.0,0,chest,6052.0,Rspan.names.short,E11names
69,103.0,D,17.0,lane,1.0,1,lane,5883.0,Rspan.names.short,E11names
70,103.0,D,17.0,hair,2.0,2,hair,6663.0,Rspan.names.short,E11names
71,103.0,D,17.0,crown,3.0,3,crown,7356.0,Rspan.names.short,E11names
72,103.0,S,18.0,jar,0.0,0,jar,5497.0,Rspan.names.short,E11names
73,103.0,S,18.0,bar,1.0,1,bar,5918.0,Rspan.names.short,E11names
74,103.0,S,18.0,car,2.0,2,car,7338.0,Rspan.names.short,E11names
75,103.0,S,18.0,scar,3.0,3,star,7971.0,Rspan.names.short,E11names
76,103.0,S,18.0,star,4.0,,,6490.0,Rspan.names.short,E11names
77,103.0,S,19.0,cream,0.0,0,cream,5438.0,Rspan.names.short,E11names
78,103.0,S,19.0,team,1.0,1,team,6917.0,Rspan.names.short,E11names
79,103.0,S,19.0,steam,2.0,2,steam,7879.0,Rspan.names.short,E11names
80,103.0,S,20.0,blouse,0.0,0,blouse,5202.0,Rspan.names.short,E11names
81,103.0,S,20.0,house,1.0,1,house,5707.0,Rspan.names.short,E11names
82,103.0,S,20.0,mouse,2.0,2,mouse,6864.0,Rspan.names.short,E11names
83,103.0,D,21.0,beard,0.0,0,beard,5539.0,Rspan.names.short,E11names
84,103.0,D,21.0,hill,1.0,1,hill,6510.0,Rspan.names.short,E11names
85,103.0,D,21.0,dirt,2.0,2,dirt,7338.0,Rspan.names.short,E11names
86,103.0,D,21.0,card,3.0,3,card,8187.0,Rspan.names.short,E11names
87,103.0,D,21.0,line,4.0,4,line,8409.0,Rspan.names.short,E11names
88,103.0,D,22.0,deck,0.0,0,deck,7073.0,Rspan.names.short,E11names
89,103.0,D,22.0,slice,1.0,1,slice,5942.0,Rspan.names.short,E11names
90,103.0,D,22.0,rat,2.0,2,rat,8520.0,Rspan.names.short,E11names
91,103.0,D,23.0,shell,0.0,0,tree,5686.0,Rspan.names.short,E11names
92,103.0,D,23.0,tree,1.0,1,shell,5986.0,Rspan.names.short,E11names
93,103.0,D,23.0,bowl,2.0,2,,7722.0,Rspan.names.short,E11names
94,103.0,D,23.0,broom,3.0,3,bowl,5580.0,Rspan.names.short,E11names
95,103.0,D,23.0,test,4.0,4,ground,9022.0,Rspan.names.short,E11names
96,103.0,D,23.0,ground,5.0,,,9802.0,Rspan.names.short,E11names
97,103.0,S,24.0,pie,0.0,0,pie,5742.0,Rspan.names.short,E11names
98,103.0,S,24.0,fly,1.0,1,tie,6241.0,Rspan.names.short,E11names
99,103.0,S,24.0,tie,2.0,2,fly,5601.0,Rspan.names.short,E11names
100,103.0,S,24.0,sky,3.0,3,eye,6080.0,Rspan.names.short,E11names
101,103.0,S,24.0,eye,4.0,,,8598.0,Rspan.names.short,E11names
102,103.0,S,25.0,mail,0.0,0,mail,5157.0,Rspan.names.short,E11names
103,103.0,S,25.0,sail,1.0,1,sail,7608.0,Rspan.names.short,E11names
104,103.0,S,25.0,trail,2.0,2,wail,6487.0,Rspan.names.short,E11names
105,103.0,S,25.0,wail,3.0,3,tail,6355.0,Rspan.names.short,E11names
106,103.0,S,25.0,tail,4.0,4,jail,8052.0,Rspan.names.short,E11names
107,103.0,S,25.0,jail,5.0,,,8953.0,Rspan.names.short,E11names
108,103.0,S,26.0,band,0.0,0,band,6035.0,Rspan.names.short,E11names
109,103.0,S,26.0,land,1.0,1,land,6682.0,Rspan.names.short,E11names
110,103.0,S,26.0,stand,2.0,2,stand,7247.0,Rspan.names.short,E11names
111,103.0,S,26.0,hand,3.0,3,hand,5772.0,Rspan.names.short,E11names
112,103.0,D,27.0,mare,0.0,0,mare,5968.0,Rspan.names.short,E11names
113,103.0,D,27.0,bell,1.0,1,bell,6330.0,Rspan.names.short,E11names
114,103.0,D,27.0,brain,2.0,2,brain,7757.0,Rspan.names.short,E11names
115,103.0,D,27.0,beef,3.0,3,beef,7069.0,Rspan.names.short,E11names
116,106.0,P,0.0,hood,0.0,0,hood,19903.0,Rspan.names.short,E11names
117,106.0,P,0.0,wood,1.0,1,wood,8854.0,Rspan.names.short,E11names
118,106.0,P,1.0,farm,0.0,0,farm,7458.0,Rspan.names.short,E11names
119,106.0,P,1.0,arm,1.0,1,arm,7206.0,Rspan.names.short,E11names
120,106.0,P,2.0,earth,0.0,0,earth,7331.0,Rspan.names.short,E11names
121,106.0,P,2.0,peach,1.0,1,peach,6949.0,Rspan.names.short,E11names
122,106.0,P,3.0,bath,0.0,0,,6087.0,Rspan.names.short,E11names
123,106.0,P,3.0,dawn,1.0,1,dawn,6836.0,Rspan.names.short,E11names
124,106.0,D,4.0,coin,0.0,0,coin,6934.0,Rspan.names.short,E11names
125,106.0,D,4.0,film,1.0,1,film,6279.0,Rspan.names.short,E11names
126,106.0,D,4.0,leaf,2.0,2,leaf,6788.0,Rspan.names.short,E11names
127,106.0,D,4.0,train,3.0,3,art,6468.0,Rspan.names.short,E11names
128,106.0,D,4.0,map,4.0,4,,6561.0,Rspan.names.short,E11names
129,106.0,D,4.0,art,5.0,,,6723.0,Rspan.names.short,E11names
130,106.0,D,5.0,neck,0.0,0,neck,6550.0,Rspan.names.short,E11names
131,106.0,D,5.0,town,1.0,1,,6272.0,Rspan.names.short,E11names
132,106.0,D,5.0,hat,2.0,2,,7238.0,Rspan.names.short,E11names
133,106.0,D,5.0,street,3.0,3,street,7802.0,Rspan.names.short,E11names
134,106.0,D,6.0,path,0.0,0,path,6357.0,Rspan.names.short,E11names
135,106.0,D,6.0,nest,1.0,1,nest,7158.0,Rspan.names.short,E11names
136,106.0,D,6.0,square,2.0,2,square,7895.0,Rspan.names.short,E11names
137,106.0,D,6.0,wood,3.0,3,wood,7882.0,Rspan.names.short,E11names
138,106.0,D,6.0,beach,4.0,4,beach,8775.0,Rspan.names.short,E11names
139,106.0,S,7.0,king,0.0,0,king,5927.0,Rspan.names.short,E11names
140,106.0,S,7.0,ring,1.0,1,ring,6387.0,Rspan.names.short,E11names
141,106.0,S,7.0,spring,2.0,2,string,6330.0,Rspan.names.short,E11names
142,106.0,S,7.0,string,3.0,3,spring,6814.0,Rspan.names.short,E11names
143,106.0,S,7.0,wing,4.0,4,wing,7069.0,Rspan.names.short,E11names
144,106.0,S,8.0,bread,0.0,0,bread,6308.0,Rspan.names.short,E11names
145,106.0,S,8.0,head,1.0,1,thread,6127.0,Rspan.names.short,E11names
146,106.0,S,8.0,thread,2.0,2,bed,6179.0,Rspan.names.short,E11names
147,106.0,S,8.0,bed,3.0,3,,6771.0,Rspan.names.short,E11names
148,106.0,S,9.0,doll,0.0,0,doll,6693.0,Rspan.names.short,E11names
149,106.0,S,9.0,ball,1.0,1,hall,6354.0,Rspan.names.short,E11names
150,106.0,S,9.0,shawl,2.0,2,brawl,7163.0,Rspan.names.short,E11names
151,106.0,S,9.0,hall,3.0,3,,6595.0,Rspan.names.short,E11names
152,106.0,S,9.0,brawl,4.0,,,8475.0,Rspan.names.short,E11names
153,106.0,S,9.0,wall,5.0,,,6367.0,Rspan.names.short,E11names
154,106.0,S,10.0,bone,0.0,0,bone,6083.0,Rspan.names.short,E11names
155,106.0,S,10.0,phone,1.0,1,phone,5831.0,Rspan.names.short,E11names
156,106.0,S,10.0,stone,2.0,2,stone,5847.0,Rspan.names.short,E11names
157,106.0,D,11.0,rice,0.0,0,rice,4773.0,Rspan.names.short,E11names
158,106.0,D,11.0,cat,1.0,1,cat,5448.0,Rspan.names.short,E11names
159,106.0,D,11.0,trash,2.0,2,trash,6775.0,Rspan.names.short,E11names
160,106.0,S,12.0,blouse,0.0,0,blouse,5774.0,Rspan.names.short,E11names
161,106.0,S,12.0,house,1.0,1,house,5735.0,Rspan.names.short,E11names
162,106.0,S,12.0,mouse,2.0,2,mouse,5610.0,Rspan.names.short,E11names
163,106.0,D,13.0,spice,0.0,0,heat,5705.0,Rspan.names.short,E11names
164,106.0,D,13.0,heat,1.0,1,,6525.0,Rspan.names.short,E11names
165,106.0,D,13.0,shape,2.0,2,guest,5919.0,Rspan.names.short,E11names
166,106.0,D,13.0,pear,3.0,3,,6139.0,Rspan.names.short,E11names
167,106.0,D,13.0,guest,4.0,4,,7053.0,Rspan.names.short,E11names
168,106.0,S,14.0,boot,0.0,0,boot,5559.0,Rspan.names.short,E11names
169,106.0,S,14.0,suit,1.0,1,suit,6922.0,Rspan.names.short,E11names
170,106.0,S,14.0,flute,2.0,2,flute,5837.0,Rspan.names.short,E11names
171,106.0,S,14.0,loot,3.0,3,root,5651.0,Rspan.names.short,E11names
172,106.0,S,14.0,root,4.0,4,brute,5921.0,Rspan.names.short,E11names
173,106.0,S,14.0,brute,5.0,5,,5701.0,Rspan.names.short,E11names
174,106.0,D,15.0,toy,0.0,0,toy,5837.0,Rspan.names.short,E11names
175,106.0,D,15.0,wreck,1.0,1,wreck,6147.0,Rspan.names.short,E11names
176,106.0,D,15.0,frown,2.0,2,frown,6935.0,Rspan.names.short,E11names
177,106.0,D,16.0,chest,0.0,0,chest,5331.0,Rspan.names.short,E11names
178,106.0,D,16.0,lane,1.0,1,,5967.0,Rspan.names.short,E11names
179,106.0,D,16.0,hair,2.0,2,hair,6337.0,Rspan.names.short,E11names
180,106.0,D,16.0,crown,3.0,3,crown,7363.0,Rspan.names.short,E11names
181,106.0,S,17.0,deer,0.0,0,deer,6420.0,Rspan.names.short,E11names
182,106.0,S,17.0,sphere,1.0,1,sphere,6460.0,Rspan.names.short,E11names
183,106.0,S,17.0,ear,2.0,2,ear,7401.0,Rspan.names.short,E11names
184,106.0,S,17.0,tear,3.0,3,tear,7208.0,Rspan.names.short,E11names
185,106.0,S,18.0,jar,0.0,0,bar,6483.0,Rspan.names.short,E11names
186,106.0,S,18.0,bar,1.0,1,,6808.0,Rspan.names.short,E11names
187,106.0,S,18.0,car,2.0,2,car,6119.0,Rspan.names.short,E11names
188,106.0,S,18.0,scar,3.0,3,,7490.0,Rspan.names.short,E11names
189,106.0,S,18.0,star,4.0,4,star,6285.0,Rspan.names.short,E11names
190,106.0,D,19.0,ant,0.0,0,air,5580.0,Rspan.names.short,E11names
191,106.0,D,19.0,air,1.0,1,,5598.0,Rspan.names.short,E11names
192,106.0,D,19.0,ink,2.0,2,ant,6959.0,Rspan.names.short,E11names
193,106.0,D,19.0,cloud,3.0,3,seat,6976.0,Rspan.names.short,E11names
194,106.0,D,19.0,seat,4.0,4,cloud,7695.0,Rspan.names.short,E11names
195,106.0,D,19.0,breath,5.0,5,,7242.0,Rspan.names.short,E11names
196,106.0,D,20.0,shell,0.0,0,shell,5695.0,Rspan.names.short,E11names
197,106.0,D,20.0,tree,1.0,1,,6076.0,Rspan.names.short,E11names
198,106.0,D,20.0,bowl,2.0,2,test,6753.0,Rspan.names.short,E11names
199,106.0,D,20.0,broom,3.0,3,ground,7250.0,Rspan.names.short,E11names
200,106.0,D,20.0,test,4.0,4,,7695.0,Rspan.names.short,E11names
201,106.0,D,20.0,ground,5.0,5,,7938.0,Rspan.names.short,E11names
202,106.0,S,21.0,mail,0.0,0,mail,6123.0,Rspan.names.short,E11names
203,106.0,S,21.0,sail,1.0,1,sail,6190.0,Rspan.names.short,E11names
204,106.0,S,21.0,trail,2.0,2,tail,6175.0,Rspan.names.short,E11names
205,106.0,S,21.0,wail,3.0,3,,7383.0,Rspan.names.short,E11names
206,106.0,S,21.0,tail,4.0,4,jail,9222.0,Rspan.names.short,E11names
207,106.0,S,21.0,jail,5.0,5,,7003.0,Rspan.names.short,E11names
208,106.0,S,22.0,band,0.0,0,band,6703.0,Rspan.names.short,E11names
209,106.0,S,22.0,land,1.0,1,land,5571.0,Rspan.names.short,E11names
210,106.0,S,22.0,stand,2.0,2,stand,5533.0,Rspan.names.short,E11names
211,106.0,S,22.0,hand,3.0,3,hand,5840.0,Rspan.names.short,E11names
212,106.0,S,23.0,pie,0.0,0,pie,5804.0,Rspan.names.short,E11names
213,106.0,S,23.0,fly,1.0,1,fly,6460.0,Rspan.names.short,E11names
214,106.0,S,23.0,tie,2.0,2,sky,6794.0,Rspan.names.short,E11names
215,106.0,S,23.0,sky,3.0,3,,8297.0,Rspan.names.short,E11names
216,106.0,S,23.0,eye,4.0,4,eye,6357.0,Rspan.names.short,E11names
217,106.0,D,24.0,mare,0.0,0,mare,6009.0,Rspan.names.short,E11names
218,106.0,D,24.0,bell,1.0,1,bell,6776.0,Rspan.names.short,E11names
219,106.0,D,24.0,brain,2.0,2,,6424.0,Rspan.names.short,E11names
220,106.0,D,24.0,beef,3.0,3,brain,6232.0,Rspan.names.short,E11names
221,106.0,D,25.0,deck,0.0,0,deck,5888.0,Rspan.names.short,E11names
222,106.0,D,25.0,slice,1.0,1,slice,5894.0,Rspan.names.short,E11names
223,106.0,D,25.0,rat,2.0,2,rat,6778.0,Rspan.names.short,E11names
224,106.0,S,26.0,cream,0.0,0,cream,5113.0,Rspan.names.short,E11names
225,106.0,S,26.0,team,1.0,1,team,6183.0,Rspan.names.short,E11names
226,106.0,S,26.0,steam,2.0,2,steam,6039.0,Rspan.names.short,E11names
227,106.0,D,27.0,beard,0.0,0,,5278.0,Rspan.names.short,E11names
228,106.0,D,27.0,hill,1.0,1,beard,6395.0,Rspan.names.short,E11names
229,106.0,D,27.0,dirt,2.0,2,,6516.0,Rspan.names.short,E11names
230,106.0,D,27.0,card,3.0,3,dirt,7544.0,Rspan.names.short,E11names
231,106.0,D,27.0,line,4.0,4,,6784.0,Rspan.names.short,E11names
232,107.0,P,0.0,hood,0.0,0,,12986.0,Rspan.names.short,E11names
233,107.0,P,0.0,wood,1.0,1,wood,4525.0,Rspan.names.short,E11names
234,107.0,P,1.0,bath,0.0,0,bath,4385.0,Rspan.names.short,E11names
235,107.0,P,1.0,dawn,1.0,1,dawn,4302.0,Rspan.names.short,E11names
236,107.0,P,2.0,farm,0.0,0,farm,4255.0,Rspan.names.short,E11names
237,107.0,P,2.0,arm,1.0,1,arm,4104.0,Rspan.names.short,E11names
238,107.0,P,3.0,earth,0.0,0,earth,3943.0,Rspan.names.short,E11names
239,107.0,P,3.0,peach,1.0,1,peach,3891.0,Rspan.names.short,E11names
240,107.0,D,4.0,path,0.0,0,,4064.0,Rspan.names.short,E11names
241,107.0,D,4.0,nest,1.0,1,,3767.0,Rspan.names.short,E11names
242,107.0,D,4.0,square,2.0,2,square,3987.0,Rspan.names.short,E11names
243,107.0,D,4.0,wood,3.0,3,wood,4621.0,Rspan.names.short,E11names
244,107.0,D,4.0,beach,4.0,4,,4462.0,Rspan.names.short,E11names
245,107.0,D,5.0,rice,0.0,0,,4159.0,Rspan.names.short,E11names
246,107.0,D,5.0,cat,1.0,1,rice,4435.0,Rspan.names.short,E11names
247,107.0,D,5.0,trash,2.0,2,,3779.0,Rspan.names.short,E11names
248,107.0,S,6.0,bone,0.0,0,,4063.0,Rspan.names.short,E11names
249,107.0,S,6.0,phone,1.0,1,phone,4575.0,Rspan.names.short,E11names
250,107.0,S,6.0,stone,2.0,2,stone,4018.0,Rspan.names.short,E11names
251,107.0,D,7.0,neck,0.0,0,,3899.0,Rspan.names.short,E11names
252,107.0,D,7.0,town,1.0,1,cat,4889.0,Rspan.names.short,E11names
253,107.0,D,7.0,hat,2.0,2,town,4503.0,Rspan.names.short,E11names
254,107.0,D,7.0,street,3.0,3,street,4541.0,Rspan.names.short,E11names
255,107.0,S,8.0,doll,0.0,0,,5719.0,Rspan.names.short,E11names
256,107.0,S,8.0,ball,1.0,1,doll,4059.0,Rspan.names.short,E11names
257,107.0,S,8.0,shawl,2.0,2,,4268.0,Rspan.names.short,E11names
258,107.0,S,8.0,hall,3.0,3,brawl,4691.0,Rspan.names.short,E11names
259,107.0,S,8.0,brawl,4.0,4,shawl,4233.0,Rspan.names.short,E11names
260,107.0,S,8.0,wall,5.0,5,,4624.0,Rspan.names.short,E11names
261,107.0,D,9.0,coin,0.0,0,coin,4229.0,Rspan.names.short,E11names
262,107.0,D,9.0,film,1.0,1,film,4574.0,Rspan.names.short,E11names
263,107.0,D,9.0,leaf,2.0,2,train,4129.0,Rspan.names.short,E11names
264,107.0,D,9.0,train,3.0,3,map,4334.0,Rspan.names.short,E11names
265,107.0,D,9.0,map,4.0,4,art,4162.0,Rspan.names.short,E11names
266,107.0,D,9.0,art,5.0,,,4486.0,Rspan.names.short,E11names
267,107.0,S,10.0,bread,0.0,0,,4341.0,Rspan.names.short,E11names
268,107.0,S,10.0,head,1.0,1,thread,4096.0,Rspan.names.short,E11names
269,107.0,S,10.0,thread,2.0,2,,5062.0,Rspan.names.short,E11names
270,107.0,S,10.0,bed,3.0,3,bed,4758.0,Rspan.names.short,E11names
271,107.0,S,11.0,king,0.0,0,king,4242.0,Rspan.names.short,E11names
272,107.0,S,11.0,ring,1.0,1,,4122.0,Rspan.names.short,E11names
273,107.0,S,11.0,spring,2.0,2,spring,4054.0,Rspan.names.short,E11names
274,107.0,S,11.0,string,3.0,3,,4767.0,Rspan.names.short,E11names
275,107.0,S,11.0,wing,4.0,4,,5025.0,Rspan.names.short,E11names
276,107.0,D,12.0,spice,0.0,0,spice,4453.0,Rspan.names.short,E11names
277,107.0,D,12.0,heat,1.0,1,heat,4324.0,Rspan.names.short,E11names
278,107.0,D,12.0,shape,2.0,2,shape,4713.0,Rspan.names.short,E11names
279,107.0,D,12.0,pear,3.0,3,guest,4191.0,Rspan.names.short,E11names
280,107.0,D,12.0,guest,4.0,4,,4072.0,Rspan.names.short,E11names
281,107.0,D,13.0,toy,0.0,0,toy,4057.0,Rspan.names.short,E11names
282,107.0,D,13.0,wreck,1.0,1,wreck,3833.0,Rspan.names.short,E11names
283,107.0,D,13.0,frown,2.0,2,frown,4466.0,Rspan.names.short,E11names
284,107.0,D,14.0,chest,0.0,0,chest,3866.0,Rspan.names.short,E11names
285,107.0,D,14.0,lane,1.0,1,,4218.0,Rspan.names.short,E11names
286,107.0,D,14.0,hair,2.0,2,crown,4043.0,Rspan.names.short,E11names
287,107.0,D,14.0,crown,3.0,,,4900.0,Rspan.names.short,E11names
288,107.0,S,15.0,deer,0.0,0,deer,4069.0,Rspan.names.short,E11names
289,107.0,S,15.0,sphere,1.0,1,,4340.0,Rspan.names.short,E11names
290,107.0,S,15.0,ear,2.0,2,tear,4320.0,Rspan.names.short,E11names
291,107.0,S,15.0,tear,3.0,,,4221.0,Rspan.names.short,E11names
292,107.0,S,16.0,cream,0.0,0,cream,4017.0,Rspan.names.short,E11names
293,107.0,S,16.0,team,1.0,1,,4523.0,Rspan.names.short,E11names
294,107.0,S,16.0,steam,2.0,2,steam,4351.0,Rspan.names.short,E11names
295,107.0,S,17.0,boot,0.0,0,suit,5087.0,Rspan.names.short,E11names
296,107.0,S,17.0,suit,1.0,1,,6046.0,Rspan.names.short,E11names
297,107.0,S,17.0,flute,2.0,2,flute,4156.0,Rspan.names.short,E11names
298,107.0,S,17.0,loot,3.0,3,loot,4360.0,Rspan.names.short,E11names
299,107.0,S,17.0,root,4.0,4,brute,4972.0,Rspan.names.short,E11names
300,107.0,S,17.0,brute,5.0,,,5102.0,Rspan.names.short,E11names
301,107.0,S,18.0,jar,0.0,0,bar,3983.0,Rspan.names.short,E11names
302,107.0,S,18.0,bar,1.0,1,,3994.0,Rspan.names.short,E11names
303,107.0,S,18.0,car,2.0,2,car,4764.0,Rspan.names.short,E11names
304,107.0,S,18.0,scar,3.0,3,star,4095.0,Rspan.names.short,E11names
305,107.0,S,18.0,star,4.0,,,4693.0,Rspan.names.short,E11names
306,107.0,D,19.0,ant,0.0,0,ant,4171.0,Rspan.names.short,E11names
307,107.0,D,19.0,air,1.0,1,arm,4462.0,Rspan.names.short,E11names
308,107.0,D,19.0,ink,2.0,2,,4022.0,Rspan.names.short,E11names
309,107.0,D,19.0,cloud,3.0,3,,6319.0,Rspan.names.short,E11names
310,107.0,D,19.0,seat,4.0,4,breath,4026.0,Rspan.names.short,E11names
311,107.0,D,19.0,breath,5.0,,,4139.0,Rspan.names.short,E11names
312,107.0,D,20.0,beard,0.0,0,beard,3887.0,Rspan.names.short,E11names
313,107.0,D,20.0,hill,1.0,1,,3910.0,Rspan.names.short,E11names
314,107.0,D,20.0,dirt,2.0,2,line,4596.0,Rspan.names.short,E11names
315,107.0,D,20.0,card,3.0,,,4286.0,Rspan.names.short,E11names
316,107.0,D,20.0,line,4.0,,,3924.0,Rspan.names.short,E11names
317,107.0,D,21.0,shell,0.0,0,,3998.0,Rspan.names.short,E11names
318,107.0,D,21.0,tree,1.0,1,,3936.0,Rspan.names.short,E11names
319,107.0,D,21.0,bowl,2.0,2,bowl,4301.0,Rspan.names.short,E11names
320,107.0,D,21.0,broom,3.0,3,,5362.0,Rspan.names.short,E11names
321,107.0,D,21.0,test,4.0,4,ground,4901.0,Rspan.names.short,E11names
322,107.0,D,21.0,ground,5.0,,,4290.0,Rspan.names.short,E11names
323,107.0,S,22.0,mail,0.0,0,mail,4759.0,Rspan.names.short,E11names
324,107.0,S,22.0,sail,1.0,1,trail,4258.0,Rspan.names.short,E11names
325,107.0,S,22.0,trail,2.0,2,wail,4266.0,Rspan.names.short,E11names
326,107.0,S,22.0,wail,3.0,3,,4369.0,Rspan.names.short,E11names
327,107.0,S,22.0,tail,4.0,4,jail,4827.0,Rspan.names.short,E11names
328,107.0,S,22.0,jail,5.0,,,5276.0,Rspan.names.short,E11names
329,107.0,D,23.0,deck,0.0,0,,4024.0,Rspan.names.short,E11names
330,107.0,D,23.0,slice,1.0,1,slice,4522.0,Rspan.names.short,E11names
331,107.0,D,23.0,rat,2.0,2,rat,4910.0,Rspan.names.short,E11names
332,107.0,S,24.0,band,0.0,0,band,3966.0,Rspan.names.short,E11names
333,107.0,S,24.0,land,1.0,1,,4137.0,Rspan.names.short,E11names
334,107.0,S,24.0,stand,2.0,2,hand,4598.0,Rspan.names.short,E11names
335,107.0,S,24.0,hand,3.0,,,4175.0,Rspan.names.short,E11names
336,107.0,S,25.0,pie,0.0,0,pie,4658.0,Rspan.names.short,E11names
337,107.0,S,25.0,fly,1.0,1,,5584.0,Rspan.names.short,E11names
338,107.0,S,25.0,tie,2.0,2,sky,4113.0,Rspan.names.short,E11names
339,107.0,S,25.0,sky,3.0,3,eye,4143.0,Rspan.names.short,E11names
340,107.0,S,25.0,eye,4.0,,,4988.0,Rspan.names.short,E11names
341,107.0,S,26.0,blouse,0.0,0,blouse,5213.0,Rspan.names.short,E11names
342,107.0,S,26.0,house,1.0,1,house,4117.0,Rspan.names.short,E11names
343,107.0,S,26.0,mouse,2.0,2,mouse,4018.0,Rspan.names.short,E11names
344,107.0,D,27.0,mare,0.0,0,mare,4221.0,Rspan.names.short,E11names
345,107.0,D,27.0,bell,1.0,1,,4590.0,Rspan.names.short,E11names
346,107.0,D,27.0,brain,2.0,2,bell,5224.0,Rspan.names.short,E11names
347,107.0,D,27.0,beef,3.0,3,beef,5200.0,Rspan.names.short,E11names
348,108.0,P,0.0,hood,0.0,0,hood,9296.0,Rspan.names.short,E11names
349,108.0,P,0.0,wood,1.0,1,wood,4953.0,Rspan.names.short,E11names
350,108.0,P,1.0,earth,0.0,0,earth,5393.0,Rspan.names.short,E11names
351,108.0,P,1.0,peach,1.0,1,peach,4442.0,Rspan.names.short,E11names
352,108.0,P,2.0,farm,0.0,0,farm,4644.0,Rspan.names.short,E11names
353,108.0,P,2.0,arm,1.0,1,arm,5068.0,Rspan.names.short,E11names
354,108.0,P,3.0,bath,0.0,0,bath,4902.0,Rspan.names.short,E11names
355,108.0,P,3.0,dawn,1.0,1,dawn,4963.0,Rspan.names.short,E11names
356,108.0,D,4.0,rice,0.0,0,rice,4903.0,Rspan.names.short,E11names
357,108.0,D,4.0,cat,1.0,1,cat,3988.0,Rspan.names.short,E11names
358,108.0,D,4.0,trash,2.0,2,,5430.0,Rspan.names.short,E11names
359,108.0,D,5.0,coin,0.0,0,coin,4549.0,Rspan.names.short,E11names
360,108.0,D,5.0,film,1.0,1,film,4560.0,Rspan.names.short,E11names
361,108.0,D,5.0,leaf,2.0,2,leaf,6284.0,Rspan.names.short,E11names
362,108.0,D,5.0,train,3.0,3,train,4904.0,Rspan.names.short,E11names
363,108.0,D,5.0,map,4.0,4,map,5501.0,Rspan.names.short,E11names
364,108.0,D,5.0,art,5.0,5,art,6609.0,Rspan.names.short,E11names
365,108.0,D,6.0,neck,0.0,0,neck,6249.0,Rspan.names.short,E11names
366,108.0,D,6.0,town,1.0,1,town,4159.0,Rspan.names.short,E11names
367,108.0,D,6.0,hat,2.0,2,hat,5034.0,Rspan.names.short,E11names
368,108.0,D,6.0,street,3.0,3,,5810.0,Rspan.names.short,E11names
369,108.0,S,7.0,doll,0.0,0,doll,5809.0,Rspan.names.short,E11names
370,108.0,S,7.0,ball,1.0,1,ball,4937.0,Rspan.names.short,E11names
371,108.0,S,7.0,shawl,2.0,2,shawl,4341.0,Rspan.names.short,E11names
372,108.0,S,7.0,hall,3.0,3,hall,4561.0,Rspan.names.short,E11names
373,108.0,S,7.0,brawl,4.0,4,brawl,5908.0,Rspan.names.short,E11names
374,108.0,S,7.0,wall,5.0,5,wall,4792.0,Rspan.names.short,E11names
375,108.0,D,8.0,path,0.0,0,path,4792.0,Rspan.names.short,E11names
376,108.0,D,8.0,nest,1.0,1,nest,5050.0,Rspan.names.short,E11names
377,108.0,D,8.0,square,2.0,2,square,4953.0,Rspan.names.short,E11names
378,108.0,D,8.0,wood,3.0,3,wood,5076.0,Rspan.names.short,E11names
379,108.0,D,8.0,beach,4.0,4,beach,4946.0,Rspan.names.short,E11names
380,108.0,S,9.0,blouse,0.0,0,blouse,4775.0,Rspan.names.short,E11names
381,108.0,S,9.0,house,1.0,1,house,4161.0,Rspan.names.short,E11names
382,108.0,S,9.0,mouse,2.0,2,mouse,4269.0,Rspan.names.short,E11names
383,108.0,S,10.0,bread,0.0,0,bread,8080.0,Rspan.names.short,E11names
384,108.0,S,10.0,head,1.0,1,head,4764.0,Rspan.names.short,E11names
385,108.0,S,10.0,thread,2.0,2,bed,4775.0,Rspan.names.short,E11names
386,108.0,S,10.0,bed,3.0,,,6137.0,Rspan.names.short,E11names
387,108.0,S,11.0,king,0.0,0,king,5143.0,Rspan.names.short,E11names
388,108.0,S,11.0,ring,1.0,1,ring,4642.0,Rspan.names.short,E11names
389,108.0,S,11.0,spring,2.0,2,spring,4330.0,Rspan.names.short,E11names
390,108.0,S,11.0,string,3.0,3,string,4719.0,Rspan.names.short,E11names
391,108.0,S,11.0,wing,4.0,4,wig,6035.0,Rspan.names.short,E11names
392,108.0,D,12.0,chest,0.0,0,chest,5628.0,Rspan.names.short,E11names
393,108.0,D,12.0,lane,1.0,1,lane,4299.0,Rspan.names.short,E11names
394,108.0,D,12.0,hair,2.0,2,hair,4825.0,Rspan.names.short,E11names
395,108.0,D,12.0,crown,3.0,3,,5321.0,Rspan.names.short,E11names
396,108.0,S,13.0,cream,0.0,0,cream,4676.0,Rspan.names.short,E11names
397,108.0,S,13.0,team,1.0,1,team,5306.0,Rspan.names.short,E11names
398,108.0,S,13.0,steam,2.0,2,steam,4472.0,Rspan.names.short,E11names
399,108.0,D,14.0,ant,0.0,0,ant,4906.0,Rspan.names.short,E11names
400,108.0,D,14.0,air,1.0,1,wind,3639.0,Rspan.names.short,E11names
401,108.0,D,14.0,ink,2.0,2,ink,4400.0,Rspan.names.short,E11names
402,108.0,D,14.0,cloud,3.0,3,cloud,4417.0,Rspan.names.short,E11names
403,108.0,D,14.0,seat,4.0,4,seat,5546.0,Rspan.names.short,E11names
404,108.0,D,14.0,breath,5.0,5,breath,4541.0,Rspan.names.short,E11names
405,108.0,S,15.0,jar,0.0,0,jar,5333.0,Rspan.names.short,E11names
406,108.0,S,15.0,bar,1.0,1,bar,5249.0,Rspan.names.short,E11names
407,108.0,S,15.0,car,2.0,2,car,3951.0,Rspan.names.short,E11names
408,108.0,S,15.0,scar,3.0,3,scar,4739.0,Rspan.names.short,E11names
409,108.0,S,15.0,star,4.0,4,star,4487.0,Rspan.names.short,E11names
410,108.0,S,16.0,deer,0.0,0,deer,5849.0,Rspan.names.short,E11names
411,108.0,S,16.0,sphere,1.0,1,sphere,4703.0,Rspan.names.short,E11names
412,108.0,S,16.0,ear,2.0,2,,4324.0,Rspan.names.short,E11names
413,108.0,S,16.0,tear,3.0,,,4417.0,Rspan.names.short,E11names
414,108.0,D,17.0,toy,0.0,0,toy,4991.0,Rspan.names.short,E11names
415,108.0,D,17.0,wreck,1.0,1,wreck,4816.0,Rspan.names.short,E11names
416,108.0,D,17.0,frown,2.0,2,frown,4921.0,Rspan.names.short,E11names
417,108.0,S,18.0,boot,0.0,0,boot,5671.0,Rspan.names.short,E11names
418,108.0,S,18.0,suit,1.0,1,suit,5173.0,Rspan.names.short,E11names
419,108.0,S,18.0,flute,2.0,2,flute,4343.0,Rspan.names.short,E11names
420,108.0,S,18.0,loot,3.0,3,loot,4835.0,Rspan.names.short,E11names
421,108.0,S,18.0,root,4.0,4,root,5667.0,Rspan.names.short,E11names
422,108.0,S,18.0,brute,5.0,5,brute,5208.0,Rspan.names.short,E11names
423,108.0,D,19.0,spice,0.0,0,pear,4660.0,Rspan.names.short,E11names
424,108.0,D,19.0,heat,1.0,1,shape,4315.0,Rspan.names.short,E11names
425,108.0,D,19.0,shape,2.0,,,5552.0,Rspan.names.short,E11names
426,108.0,D,19.0,pear,3.0,,,5778.0,Rspan.names.short,E11names
427,108.0,D,19.0,guest,4.0,,,3956.0,Rspan.names.short,E11names
428,108.0,D,20.0,shell,0.0,0,shell,4525.0,Rspan.names.short,E11names
429,108.0,D,20.0,tree,1.0,1,tree,4897.0,Rspan.names.short,E11names
430,108.0,D,20.0,bowl,2.0,2,bowl,6158.0,Rspan.names.short,E11names
431,108.0,D,20.0,broom,3.0,3,broom,5104.0,Rspan.names.short,E11names
432,108.0,D,20.0,test,4.0,4,test,5269.0,Rspan.names.short,E11names
433,108.0,D,20.0,ground,5.0,5,ground,4835.0,Rspan.names.short,E11names
434,108.0,S,21.0,band,0.0,0,band,4539.0,Rspan.names.short,E11names
435,108.0,S,21.0,land,1.0,1,land,4359.0,Rspan.names.short,E11names
436,108.0,S,21.0,stand,2.0,2,stand,4667.0,Rspan.names.short,E11names
437,108.0,S,21.0,hand,3.0,3,hand,4505.0,Rspan.names.short,E11names
438,108.0,D,22.0,deck,0.0,0,deck,5203.0,Rspan.names.short,E11names
439,108.0,D,22.0,slice,1.0,1,slice,4323.0,Rspan.names.short,E11names
440,108.0,D,22.0,rat,2.0,2,rat,3864.0,Rspan.names.short,E11names
441,108.0,S,23.0,bone,0.0,0,bone,4757.0,Rspan.names.short,E11names
442,108.0,S,23.0,phone,1.0,1,phone,5544.0,Rspan.names.short,E11names
443,108.0,S,23.0,stone,2.0,2,stone,3987.0,Rspan.names.short,E11names
444,108.0,D,24.0,mare,0.0,0,mare,4045.0,Rspan.names.short,E11names
445,108.0,D,24.0,bell,1.0,1,bell,3990.0,Rspan.names.short,E11names
446,108.0,D,24.0,brain,2.0,2,brain,5424.0,Rspan.names.short,E11names
447,108.0,D,24.0,beef,3.0,3,beef,4808.0,Rspan.names.short,E11names
448,108.0,S,25.0,pie,0.0,0,pie,4342.0,Rspan.names.short,E11names
449,108.0,S,25.0,fly,1.0,1,fly,3890.0,Rspan.names.short,E11names
450,108.0,S,25.0,tie,2.0,2,tie,3737.0,Rspan.names.short,E11names
451,108.0,S,25.0,sky,3.0,3,sky,3918.0,Rspan.names.short,E11names
452,108.0,S,25.0,eye,4.0,4,eye,4715.0,Rspan.names.short,E11names
453,108.0,S,26.0,mail,0.0,0,mail,4205.0,Rspan.names.short,E11names
454,108.0,S,26.0,sail,1.0,1,sail,4031.0,Rspan.names.short,E11names
455,108.0,S,26.0,trail,2.0,2,trail,5688.0,Rspan.names.short,E11names
456,108.0,S,26.0,wail,3.0,3,wail,5157.0,Rspan.names.short,E11names
457,108.0,S,26.0,tail,4.0,4,,4383.0,Rspan.names.short,E11names
458,108.0,S,26.0,jail,5.0,,,5890.0,Rspan.names.short,E11names
459,108.0,D,27.0,beard,0.0,0,beard,4618.0,Rspan.names.short,E11names
460,108.0,D,27.0,hill,1.0,1,hill,4059.0,Rspan.names.short,E11names
461,108.0,D,27.0,dirt,2.0,2,card,5403.0,Rspan.names.short,E11names
462,108.0,D,27.0,card,3.0,3,line,4675.0,Rspan.names.short,E11names
463,108.0,D,27.0,line,4.0,,,4018.0,Rspan.names.short,E11names
464,109.0,P,0.0,hood,0.0,0,hood,10884.0,Rspan.names.short,E11names
465,109.0,P,0.0,wood,1.0,1,wood,6149.0,Rspan.names.short,E11names
466,109.0,P,1.0,farm,0.0,0,farm,5697.0,Rspan.names.short,E11names
467,109.0,P,1.0,arm,1.0,1,arm,6037.0,Rspan.names.short,E11names
468,109.0,P,2.0,earth,0.0,0,earth,5315.0,Rspan.names.short,E11names
469,109.0,P,2.0,peach,1.0,1,peach,6103.0,Rspan.names.short,E11names
470,109.0,P,3.0,bath,0.0,0,bath,5476.0,Rspan.names.short,E11names
471,109.0,P,3.0,dawn,1.0,1,dawn,5194.0,Rspan.names.short,E11names
472,109.0,D,4.0,path,0.0,0,path,6316.0,Rspan.names.short,E11names
473,109.0,D,4.0,nest,1.0,1,,5560.0,Rspan.names.short,E11names
474,109.0,D,4.0,square,2.0,2,wood,7410.0,Rspan.names.short,E11names
475,109.0,D,4.0,wood,3.0,3,,7632.0,Rspan.names.short,E11names
476,109.0,D,4.0,beach,4.0,4,beach,6638.0,Rspan.names.short,E11names
477,109.0,S,5.0,bread,0.0,0,bread,5841.0,Rspan.names.short,E11names
478,109.0,S,5.0,head,1.0,1,head,6078.0,Rspan.names.short,E11names
479,109.0,S,5.0,thread,2.0,2,thread,8188.0,Rspan.names.short,E11names
480,109.0,S,5.0,bed,3.0,3,bed,6378.0,Rspan.names.short,E11names
481,109.0,S,6.0,king,0.0,0,king,4826.0,Rspan.names.short,E11names
482,109.0,S,6.0,ring,1.0,1,ring,5027.0,Rspan.names.short,E11names
483,109.0,S,6.0,spring,2.0,2,spring,5028.0,Rspan.names.short,E11names
484,109.0,S,6.0,string,3.0,3,string,5652.0,Rspan.names.short,E11names
485,109.0,S,6.0,wing,4.0,4,,8649.0,Rspan.names.short,E11names
486,109.0,D,7.0,rice,0.0,0,rice,5365.0,Rspan.names.short,E11names
487,109.0,D,7.0,cat,1.0,1,cat,5630.0,Rspan.names.short,E11names
488,109.0,D,7.0,trash,2.0,2,trash,5550.0,Rspan.names.short,E11names
489,109.0,D,8.0,coin,0.0,0,coin,5487.0,Rspan.names.short,E11names
490,109.0,D,8.0,film,1.0,1,film,4820.0,Rspan.names.short,E11names
491,109.0,D,8.0,leaf,2.0,2,leaf,8108.0,Rspan.names.short,E11names
492,109.0,D,8.0,train,3.0,3,train,6782.0,Rspan.names.short,E11names
493,109.0,D,8.0,map,4.0,4,rain,9167.0,Rspan.names.short,E11names
494,109.0,D,8.0,art,5.0,,,9422.0,Rspan.names.short,E11names
495,109.0,S,9.0,blouse,0.0,0,blouse,14325.0,Rspan.names.short,E11names
496,109.0,S,9.0,house,1.0,1,house,5288.0,Rspan.names.short,E11names
497,109.0,S,9.0,mouse,2.0,2,mouse,6877.0,Rspan.names.short,E11names
498,109.0,D,10.0,neck,0.0,0,neck,4593.0,Rspan.names.short,E11names
499,109.0,D,10.0,town,1.0,1,hat,5819.0,Rspan.names.short,E11names
500,109.0,D,10.0,hat,2.0,2,street,6682.0,Rspan.names.short,E11names
501,109.0,D,10.0,street,3.0,,,6878.0,Rspan.names.short,E11names
502,109.0,S,11.0,doll,0.0,0,doll,4830.0,Rspan.names.short,E11names
503,109.0,S,11.0,ball,1.0,1,ball,5062.0,Rspan.names.short,E11names
504,109.0,S,11.0,shawl,2.0,2,wall,5886.0,Rspan.names.short,E11names
505,109.0,S,11.0,hall,3.0,3,shawl,5659.0,Rspan.names.short,E11names
506,109.0,S,11.0,brawl,4.0,,,5721.0,Rspan.names.short,E11names
507,109.0,S,11.0,wall,5.0,,,4413.0,Rspan.names.short,E11names
508,109.0,S,12.0,jar,0.0,0,jar,4778.0,Rspan.names.short,E11names
509,109.0,S,12.0,bar,1.0,1,bar,4923.0,Rspan.names.short,E11names
510,109.0,S,12.0,car,2.0,2,scar,4529.0,Rspan.names.short,E11names
511,109.0,S,12.0,scar,3.0,3,star,6164.0,Rspan.names.short,E11names
512,109.0,S,12.0,star,4.0,,,4375.0,Rspan.names.short,E11names
513,109.0,S,13.0,boot,0.0,0,suit,4330.0,Rspan.names.short,E11names
514,109.0,S,13.0,suit,1.0,1,loot,5271.0,Rspan.names.short,E11names
515,109.0,S,13.0,flute,2.0,2,root,6806.0,Rspan.names.short,E11names
516,109.0,S,13.0,loot,3.0,3,,5500.0,Rspan.names.short,E11names
517,109.0,S,13.0,root,4.0,,,4760.0,Rspan.names.short,E11names
518,109.0,S,13.0,brute,5.0,,,6564.0,Rspan.names.short,E11names
519,109.0,D,14.0,chest,0.0,0,hair,4918.0,Rspan.names.short,E11names
520,109.0,D,14.0,lane,1.0,1,crown,5946.0,Rspan.names.short,E11names
521,109.0,D,14.0,hair,2.0,,,5364.0,Rspan.names.short,E11names
522,109.0,D,14.0,crown,3.0,,,5343.0,Rspan.names.short,E11names
523,109.0,D,15.0,ant,0.0,0,,5759.0,Rspan.names.short,E11names
524,109.0,D,15.0,air,1.0,1,,6250.0,Rspan.names.short,E11names
525,109.0,D,15.0,ink,2.0,2,breath,6159.0,Rspan.names.short,E11names
526,109.0,D,15.0,cloud,3.0,,,4969.0,Rspan.names.short,E11names
527,109.0,D,15.0,seat,4.0,,,4539.0,Rspan.names.short,E11names
528,109.0,D,15.0,breath,5.0,,,5648.0,Rspan.names.short,E11names
529,109.0,S,16.0,cream,0.0,0,cream,5036.0,Rspan.names.short,E11names
530,109.0,S,16.0,team,1.0,1,team,5563.0,Rspan.names.short,E11names
531,109.0,S,16.0,steam,2.0,2,steam,5695.0,Rspan.names.short,E11names
532,109.0,S,17.0,deer,0.0,0,deer,4063.0,Rspan.names.short,E11names
533,109.0,S,17.0,sphere,1.0,1,sphere,5303.0,Rspan.names.short,E11names
534,109.0,S,17.0,ear,2.0,2,,6412.0,Rspan.names.short,E11names
535,109.0,S,17.0,tear,3.0,3,tear,7908.0,Rspan.names.short,E11names
536,109.0,D,18.0,spice,0.0,0,,3956.0,Rspan.names.short,E11names
537,109.0,D,18.0,heat,1.0,1,,6999.0,Rspan.names.short,E11names
538,109.0,D,18.0,shape,2.0,2,,5759.0,Rspan.names.short,E11names
539,109.0,D,18.0,pear,3.0,3,guest,5560.0,Rspan.names.short,E11names
540,109.0,D,18.0,guest,4.0,,,7396.0,Rspan.names.short,E11names
541,109.0,D,19.0,toy,0.0,0,toy,4363.0,Rspan.names.short,E11names
542,109.0,D,19.0,wreck,1.0,1,gown,5662.0,Rspan.names.short,E11names
543,109.0,D,19.0,frown,2.0,2,frown,4357.0,Rspan.names.short,E11names
544,109.0,S,20.0,pie,0.0,0,pie,5029.0,Rspan.names.short,E11names
545,109.0,S,20.0,fly,1.0,1,fly,5124.0,Rspan.names.short,E11names
546,109.0,S,20.0,tie,2.0,2,tie,5033.0,Rspan.names.short,E11names
547,109.0,S,20.0,sky,3.0,3,sky,4032.0,Rspan.names.short,E11names
548,109.0,S,20.0,eye,4.0,4,eye,5065.0,Rspan.names.short,E11names
549,109.0,S,21.0,mail,0.0,0,mail,4670.0,Rspan.names.short,E11names
550,109.0,S,21.0,sail,1.0,1,sail,4893.0,Rspan.names.short,E11names
551,109.0,S,21.0,trail,2.0,2,tail,5721.0,Rspan.names.short,E11names
552,109.0,S,21.0,wail,3.0,3,,4885.0,Rspan.names.short,E11names
553,109.0,S,21.0,tail,4.0,,,5795.0,Rspan.names.short,E11names
554,109.0,S,21.0,jail,5.0,,,7427.0,Rspan.names.short,E11names
555,109.0,D,22.0,deck,0.0,0,deck,4611.0,Rspan.names.short,E11names
556,109.0,D,22.0,slice,1.0,1,slice,4701.0,Rspan.names.short,E11names
557,109.0,D,22.0,rat,2.0,2,rat,6474.0,Rspan.names.short,E11names
558,109.0,D,23.0,mare,0.0,0,mare,4878.0,Rspan.names.short,E11names
559,109.0,D,23.0,bell,1.0,1,bell,5541.0,Rspan.names.short,E11names
560,109.0,D,23.0,brain,2.0,2,brain,5784.0,Rspan.names.short,E11names
561,109.0,D,23.0,beef,3.0,3,beef,5593.0,Rspan.names.short,E11names
562,109.0,D,24.0,shell,0.0,0,shell,5315.0,Rspan.names.short,E11names
563,109.0,D,24.0,tree,1.0,1,tree,5158.0,Rspan.names.short,E11names
564,109.0,D,24.0,bowl,2.0,2,bowel,5641.0,Rspan.names.short,E11names
565,109.0,D,24.0,broom,3.0,3,stick,6816.0,Rspan.names.short,E11names
566,109.0,D,24.0,test,4.0,4,test,7071.0,Rspan.names.short,E11names
567,109.0,D,24.0,ground,5.0,5,ground,6283.0,Rspan.names.short,E11names
568,109.0,S,25.0,band,0.0,0,band,5154.0,Rspan.names.short,E11names
569,109.0,S,25.0,land,1.0,1,land,7204.0,Rspan.names.short,E11names
570,109.0,S,25.0,stand,2.0,2,stand,6075.0,Rspan.names.short,E11names
571,109.0,S,25.0,hand,3.0,,,6240.0,Rspan.names.short,E11names
572,109.0,S,26.0,bone,0.0,0,bone,5170.0,Rspan.names.short,E11names
573,109.0,S,26.0,phone,1.0,1,phone,4652.0,Rspan.names.short,E11names
574,109.0,S,26.0,stone,2.0,2,stone,5836.0,Rspan.names.short,E11names
575,109.0,D,27.0,beard,0.0,0,beard,4732.0,Rspan.names.short,E11names
576,109.0,D,27.0,hill,1.0,1,hill,4944.0,Rspan.names.short,E11names
577,109.0,D,27.0,dirt,2.0,2,dirt,6066.0,Rspan.names.short,E11names
578,109.0,D,27.0,card,3.0,3,card,4464.0,Rspan.names.short,E11names
579,109.0,D,27.0,line,4.0,4,line,5182.0,Rspan.names.short,E11names
580,110.0,P,0.0,earth,0.0,0,earth,5374.0,Rspan.names.short,E11names
581,110.0,P,0.0,peach,1.0,1,peach,4767.0,Rspan.names.short,E11names
582,110.0,P,1.0,hood,0.0,0,hood,4499.0,Rspan.names.short,E11names
583,110.0,P,1.0,wood,1.0,1,wood,5234.0,Rspan.names.short,E11names
584,110.0,P,2.0,farm,0.0,0,farm,4600.0,Rspan.names.short,E11names
585,110.0,P,2.0,arm,1.0,1,arm,4930.0,Rspan.names.short,E11names
586,110.0,P,3.0,bath,0.0,0,bath,4563.0,Rspan.names.short,E11names
587,110.0,P,3.0,dawn,1.0,1,dawn,4590.0,Rspan.names.short,E11names
588,110.0,D,4.0,neck,0.0,0,neck,4680.0,Rspan.names.short,E11names
589,110.0,D,4.0,town,1.0,1,town,4550.0,Rspan.names.short,E11names
590,110.0,D,4.0,hat,2.0,2,,4914.0,Rspan.names.short,E11names
591,110.0,D,4.0,street,3.0,3,street,5975.0,Rspan.names.short,E11names
592,110.0,D,5.0,path,0.0,0,neck,4690.0,Rspan.names.short,E11names
593,110.0,D,5.0,nest,1.0,1,path,6161.0,Rspan.names.short,E11names
594,110.0,D,5.0,square,2.0,2,nest,4994.0,Rspan.names.short,E11names
595,110.0,D,5.0,wood,3.0,3,,5828.0,Rspan.names.short,E11names
596,110.0,D,5.0,beach,4.0,4,beach,5098.0,Rspan.names.short,E11names
597,110.0,S,6.0,doll,0.0,0,doll,4798.0,Rspan.names.short,E11names
598,110.0,S,6.0,ball,1.0,1,hall,5144.0,Rspan.names.short,E11names
599,110.0,S,6.0,shawl,2.0,2,,4627.0,Rspan.names.short,E11names
600,110.0,S,6.0,hall,3.0,3,ball,5428.0,Rspan.names.short,E11names
601,110.0,S,6.0,brawl,4.0,4,brawl,4924.0,Rspan.names.short,E11names
602,110.0,S,6.0,wall,5.0,,,5328.0,Rspan.names.short,E11names
603,110.0,S,7.0,bread,0.0,0,bread,4616.0,Rspan.names.short,E11names
604,110.0,S,7.0,head,1.0,1,head,4632.0,Rspan.names.short,E11names
605,110.0,S,7.0,thread,2.0,2,thread,4488.0,Rspan.names.short,E11names
606,110.0,S,7.0,bed,3.0,3,bed,7086.0,Rspan.names.short,E11names
607,110.0,S,8.0,king,0.0,0,king,4703.0,Rspan.names.short,E11names
608,110.0,S,8.0,ring,1.0,1,ring,4644.0,Rspan.names.short,E11names
609,110.0,S,8.0,spring,2.0,2,string,5316.0,Rspan.names.short,E11names
610,110.0,S,8.0,string,3.0,3,,5912.0,Rspan.names.short,E11names
611,110.0,S,8.0,wing,4.0,4,wing,5380.0,Rspan.names.short,E11names
612,110.0,D,9.0,coin,0.0,0,coin,4635.0,Rspan.names.short,E11names
613,110.0,D,9.0,film,1.0,1,,4875.0,Rspan.names.short,E11names
614,110.0,D,9.0,leaf,2.0,2,,5649.0,Rspan.names.short,E11names
615,110.0,D,9.0,train,3.0,3,,5328.0,Rspan.names.short,E11names
616,110.0,D,9.0,map,4.0,4,art,5220.0,Rspan.names.short,E11names
617,110.0,D,9.0,art,5.0,,,5060.0,Rspan.names.short,E11names
618,110.0,S,10.0,blouse,0.0,0,blouse,5284.0,Rspan.names.short,E11names
619,110.0,S,10.0,house,1.0,1,house,4617.0,Rspan.names.short,E11names
620,110.0,S,10.0,mouse,2.0,2,mouse,5299.0,Rspan.names.short,E11names
621,110.0,D,11.0,rice,0.0,0,rice,4360.0,Rspan.names.short,E11names
622,110.0,D,11.0,cat,1.0,1,cat,5269.0,Rspan.names.short,E11names
623,110.0,D,11.0,trash,2.0,2,trash,5731.0,Rspan.names.short,E11names
624,110.0,S,12.0,boot,0.0,0,loot,4369.0,Rspan.names.short,E11names
625,110.0,S,12.0,suit,1.0,1,suit,4828.0,Rspan.names.short,E11names
626,110.0,S,12.0,flute,2.0,2,,6276.0,Rspan.names.short,E11names
627,110.0,S,12.0,loot,3.0,3,,5553.0,Rspan.names.short,E11names
628,110.0,S,12.0,root,4.0,4,,6026.0,Rspan.names.short,E11names
629,110.0,S,12.0,brute,5.0,,,5465.0,Rspan.names.short,E11names
630,110.0,D,13.0,toy,0.0,0,toy,4348.0,Rspan.names.short,E11names
631,110.0,D,13.0,wreck,1.0,1,wreck,5304.0,Rspan.names.short,E11names
632,110.0,D,13.0,frown,2.0,2,frown,4917.0,Rspan.names.short,E11names
633,110.0,D,14.0,chest,0.0,0,chest,4384.0,Rspan.names.short,E11names
634,110.0,D,14.0,lane,1.0,1,lane,5523.0,Rspan.names.short,E11names
635,110.0,D,14.0,hair,2.0,2,hair,6558.0,Rspan.names.short,E11names
636,110.0,D,14.0,crown,3.0,3,crown,6248.0,Rspan.names.short,E11names
637,110.0,D,15.0,ant,0.0,0,ant,4410.0,Rspan.names.short,E11names
638,110.0,D,15.0,air,1.0,1,air,5620.0,Rspan.names.short,E11names
639,110.0,D,15.0,ink,2.0,2,,5796.0,Rspan.names.short,E11names
640,110.0,D,15.0,cloud,3.0,3,cloud,5931.0,Rspan.names.short,E11names
641,110.0,D,15.0,seat,4.0,4,,6432.0,Rspan.names.short,E11names
642,110.0,D,15.0,breath,5.0,5,breath,5175.0,Rspan.names.short,E11names
643,110.0,S,16.0,cream,0.0,0,cream,5151.0,Rspan.names.short,E11names
644,110.0,S,16.0,team,1.0,1,team,5642.0,Rspan.names.short,E11names
645,110.0,S,16.0,steam,2.0,2,steam,5265.0,Rspan.names.short,E11names
646,110.0,D,17.0,spice,0.0,0,spice,4422.0,Rspan.names.short,E11names
647,110.0,D,17.0,heat,1.0,1,heat,5053.0,Rspan.names.short,E11names
648,110.0,D,17.0,shape,2.0,2,shape,4780.0,Rspan.names.short,E11names
649,110.0,D,17.0,pear,3.0,3,,5615.0,Rspan.names.short,E11names
650,110.0,D,17.0,guest,4.0,4,,6485.0,Rspan.names.short,E11names
651,110.0,S,18.0,deer,0.0,0,deer,4756.0,Rspan.names.short,E11names
652,110.0,S,18.0,sphere,1.0,1,sphere,4664.0,Rspan.names.short,E11names
653,110.0,S,18.0,ear,2.0,2,hear,5280.0,Rspan.names.short,E11names
654,110.0,S,18.0,tear,3.0,3,tear,4238.0,Rspan.names.short,E11names
655,110.0,S,19.0,jar,0.0,0,jar,4199.0,Rspan.names.short,E11names
656,110.0,S,19.0,bar,1.0,1,bar,5145.0,Rspan.names.short,E11names
657,110.0,S,19.0,car,2.0,2,car,5636.0,Rspan.names.short,E11names
658,110.0,S,19.0,scar,3.0,3,scar,5023.0,Rspan.names.short,E11names
659,110.0,S,19.0,star,4.0,4,star,5718.0,Rspan.names.short,E11names
660,110.0,D,20.0,beard,0.0,0,beard,6214.0,Rspan.names.short,E11names
661,110.0,D,20.0,hill,1.0,1,,5406.0,Rspan.names.short,E11names
662,110.0,D,20.0,dirt,2.0,2,,4669.0,Rspan.names.short,E11names
663,110.0,D,20.0,card,3.0,3,line,4909.0,Rspan.names.short,E11names
664,110.0,D,20.0,line,4.0,,,6482.0,Rspan.names.short,E11names
665,110.0,D,21.0,deck,0.0,0,deck,4546.0,Rspan.names.short,E11names
666,110.0,D,21.0,slice,1.0,1,slice,5390.0,Rspan.names.short,E11names
667,110.0,D,21.0,rat,2.0,2,rat,5271.0,Rspan.names.short,E11names
668,110.0,S,22.0,pie,0.0,0,pie,4632.0,Rspan.names.short,E11names
669,110.0,S,22.0,fly,1.0,1,fly,6072.0,Rspan.names.short,E11names
670,110.0,S,22.0,tie,2.0,2,,4812.0,Rspan.names.short,E11names
671,110.0,S,22.0,sky,3.0,3,sky,5734.0,Rspan.names.short,E11names
672,110.0,S,22.0,eye,4.0,4,eye,6536.0,Rspan.names.short,E11names
673,110.0,S,23.0,mail,0.0,0,mail,4572.0,Rspan.names.short,E11names
674,110.0,S,23.0,sail,1.0,1,sail,5143.0,Rspan.names.short,E11names
675,110.0,S,23.0,trail,2.0,2,,7147.0,Rspan.names.short,E11names
676,110.0,S,23.0,wail,3.0,3,wail,6405.0,Rspan.names.short,E11names
677,110.0,S,23.0,tail,4.0,4,,7172.0,Rspan.names.short,E11names
678,110.0,S,23.0,jail,5.0,,,6115.0,Rspan.names.short,E11names
679,110.0,D,24.0,shell,0.0,0,shell,4374.0,Rspan.names.short,E11names
680,110.0,D,24.0,tree,1.0,1,,5649.0,Rspan.names.short,E11names
681,110.0,D,24.0,bowl,2.0,2,,6128.0,Rspan.names.short,E11names
682,110.0,D,24.0,broom,3.0,3,,5724.0,Rspan.names.short,E11names
683,110.0,D,24.0,test,4.0,4,ground,6039.0,Rspan.names.short,E11names
684,110.0,D,24.0,ground,5.0,,,7654.0,Rspan.names.short,E11names
685,110.0,S,25.0,bone,0.0,0,bone,4851.0,Rspan.names.short,E11names
686,110.0,S,25.0,phone,1.0,1,phone,5971.0,Rspan.names.short,E11names
687,110.0,S,25.0,stone,2.0,2,stone,5075.0,Rspan.names.short,E11names
688,110.0,S,26.0,band,0.0,0,band,4607.0,Rspan.names.short,E11names
689,110.0,S,26.0,land,1.0,1,land,5744.0,Rspan.names.short,E11names
690,110.0,S,26.0,stand,2.0,2,hand,6155.0,Rspan.names.short,E11names
691,110.0,S,26.0,hand,3.0,3,stand,6165.0,Rspan.names.short,E11names
692,110.0,D,27.0,mare,0.0,0,mare,4637.0,Rspan.names.short,E11names
693,110.0,D,27.0,bell,1.0,1,bell,5378.0,Rspan.names.short,E11names
694,110.0,D,27.0,brain,2.0,2,brain,7627.0,Rspan.names.short,E11names
695,110.0,D,27.0,beef,3.0,3,beef,5761.0,Rspan.names.short,E11names
696,112.0,P,0.0,farm,0.0,0,farm,5444.0,Rspan.names.short,E11names
697,112.0,P,0.0,arm,1.0,1,arm,6635.0,Rspan.names.short,E11names
698,112.0,P,1.0,earth,0.0,0,earth,5735.0,Rspan.names.short,E11names
699,112.0,P,1.0,peach,1.0,1,peach,5905.0,Rspan.names.short,E11names
700,112.0,P,2.0,bath,0.0,0,bath,5749.0,Rspan.names.short,E11names
701,112.0,P,2.0,dawn,1.0,1,dawn,6143.0,Rspan.names.short,E11names
702,112.0,P,3.0,hood,0.0,0,hood,6214.0,Rspan.names.short,E11names
703,112.0,P,3.0,wood,1.0,1,wood,5725.0,Rspan.names.short,E11names
704,112.0,D,4.0,rice,0.0,0,rice,5925.0,Rspan.names.short,E11names
705,112.0,D,4.0,cat,1.0,1,cat,6137.0,Rspan.names.short,E11names
706,112.0,D,4.0,trash,2.0,2,trash,6060.0,Rspan.names.short,E11names
707,112.0,S,5.0,doll,0.0,0,doll,6476.0,Rspan.names.short,E11names
708,112.0,S,5.0,ball,1.0,1,ball,6153.0,Rspan.names.short,E11names
709,112.0,S,5.0,shawl,2.0,2,,6683.0,Rspan.names.short,E11names
710,112.0,S,5.0,hall,3.0,3,,6247.0,Rspan.names.short,E11names
711,112.0,S,5.0,brawl,4.0,4,shawl,5980.0,Rspan.names.short,E11names
712,112.0,S,5.0,wall,5.0,,,6270.0,Rspan.names.short,E11names
713,112.0,D,6.0,coin,0.0,0,coin,6774.0,Rspan.names.short,E11names
714,112.0,D,6.0,film,1.0,1,film,6303.0,Rspan.names.short,E11names
715,112.0,D,6.0,leaf,2.0,2,,5418.0,Rspan.names.short,E11names
716,112.0,D,6.0,train,3.0,3,,5330.0,Rspan.names.short,E11names
717,112.0,D,6.0,map,4.0,4,art,6206.0,Rspan.names.short,E11names
718,112.0,D,6.0,art,5.0,,,5830.0,Rspan.names.short,E11names
719,112.0,S,7.0,bone,0.0,0,bone,6039.0,Rspan.names.short,E11names
720,112.0,S,7.0,phone,1.0,1,phone,5406.0,Rspan.names.short,E11names
721,112.0,S,7.0,stone,2.0,2,stone,5261.0,Rspan.names.short,E11names
722,112.0,D,8.0,path,0.0,0,,5636.0,Rspan.names.short,E11names
723,112.0,D,8.0,nest,1.0,1,,5523.0,Rspan.names.short,E11names
724,112.0,D,8.0,square,2.0,2,,5406.0,Rspan.names.short,E11names
725,112.0,D,8.0,wood,3.0,3,wood,6318.0,Rspan.names.short,E11names
726,112.0,D,8.0,beach,4.0,4,beach,6554.0,Rspan.names.short,E11names
727,112.0,S,9.0,king,0.0,0,king,5804.0,Rspan.names.short,E11names
728,112.0,S,9.0,ring,1.0,1,ring,6700.0,Rspan.names.short,E11names
729,112.0,S,9.0,spring,2.0,2,spring,5711.0,Rspan.names.short,E11names
730,112.0,S,9.0,string,3.0,3,string,5931.0,Rspan.names.short,E11names
731,112.0,S,9.0,wing,4.0,4,wing,6063.0,Rspan.names.short,E11names
732,112.0,D,10.0,neck,0.0,0,,5333.0,Rspan.names.short,E11names
733,112.0,D,10.0,town,1.0,1,,5143.0,Rspan.names.short,E11names
734,112.0,D,10.0,hat,2.0,2,,5723.0,Rspan.names.short,E11names
735,112.0,D,10.0,street,3.0,3,street,7031.0,Rspan.names.short,E11names
736,112.0,S,11.0,bread,0.0,0,bread,6049.0,Rspan.names.short,E11names
737,112.0,S,11.0,head,1.0,1,head,6255.0,Rspan.names.short,E11names
738,112.0,S,11.0,thread,2.0,,,6509.0,Rspan.names.short,E11names
739,112.0,S,11.0,bed,3.0,,,6321.0,Rspan.names.short,E11names
740,112.0,S,12.0,boot,0.0,0,,6187.0,Rspan.names.short,E11names
741,112.0,S,12.0,suit,1.0,1,suit,6268.0,Rspan.names.short,E11names
742,112.0,S,12.0,flute,2.0,2,,5729.0,Rspan.names.short,E11names
743,112.0,S,12.0,loot,3.0,3,,7612.0,Rspan.names.short,E11names
744,112.0,S,12.0,root,4.0,4,loot,6242.0,Rspan.names.short,E11names
745,112.0,S,12.0,brute,5.0,5,brute,6385.0,Rspan.names.short,E11names
746,112.0,D,13.0,spice,0.0,0,spice,6809.0,Rspan.names.short,E11names
747,112.0,D,13.0,heat,1.0,1,heat,5304.0,Rspan.names.short,E11names
748,112.0,D,13.0,shape,2.0,2,,6237.0,Rspan.names.short,E11names
749,112.0,D,13.0,pear,3.0,3,,5642.0,Rspan.names.short,E11names
750,112.0,D,13.0,guest,4.0,4,,6114.0,Rspan.names.short,E11names
751,112.0,S,14.0,jar,0.0,0,bar,5968.0,Rspan.names.short,E11names
752,112.0,S,14.0,bar,1.0,1,car,5922.0,Rspan.names.short,E11names
753,112.0,S,14.0,car,2.0,2,,5581.0,Rspan.names.short,E11names
754,112.0,S,14.0,scar,3.0,3,scar,7375.0,Rspan.names.short,E11names
755,112.0,S,14.0,star,4.0,4,star,6039.0,Rspan.names.short,E11names
756,112.0,D,15.0,ant,0.0,0,ant,5484.0,Rspan.names.short,E11names
757,112.0,D,15.0,air,1.0,1,air,6457.0,Rspan.names.short,E11names
758,112.0,D,15.0,ink,2.0,2,ink,6080.0,Rspan.names.short,E11names
759,112.0,D,15.0,cloud,3.0,3,,5901.0,Rspan.names.short,E11names
760,112.0,D,15.0,seat,4.0,4,,6097.0,Rspan.names.short,E11names
761,112.0,D,15.0,breath,5.0,5,breath,6662.0,Rspan.names.short,E11names
762,112.0,D,16.0,chest,0.0,0,lane,6217.0,Rspan.names.short,E11names
763,112.0,D,16.0,lane,1.0,1,,7032.0,Rspan.names.short,E11names
764,112.0,D,16.0,hair,2.0,2,,7421.0,Rspan.names.short,E11names
765,112.0,D,16.0,crown,3.0,3,crown,6683.0,Rspan.names.short,E11names
766,112.0,S,17.0,deer,0.0,0,deer,6200.0,Rspan.names.short,E11names
767,112.0,S,17.0,sphere,1.0,1,,6231.0,Rspan.names.short,E11names
768,112.0,S,17.0,ear,2.0,2,,6494.0,Rspan.names.short,E11names
769,112.0,S,17.0,tear,3.0,3,tear,5930.0,Rspan.names.short,E11names
770,112.0,S,18.0,blouse,0.0,0,blouse,5641.0,Rspan.names.short,E11names
771,112.0,S,18.0,house,1.0,1,house,6240.0,Rspan.names.short,E11names
772,112.0,S,18.0,mouse,2.0,2,mouse,5486.0,Rspan.names.short,E11names
773,112.0,D,19.0,toy,0.0,0,,5579.0,Rspan.names.short,E11names
774,112.0,D,19.0,wreck,1.0,1,,6092.0,Rspan.names.short,E11names
775,112.0,D,19.0,frown,2.0,2,frown,5785.0,Rspan.names.short,E11names
776,112.0,D,20.0,beard,0.0,0,,5998.0,Rspan.names.short,E11names
777,112.0,D,20.0,hill,1.0,1,,6062.0,Rspan.names.short,E11names
778,112.0,D,20.0,dirt,2.0,2,card,6899.0,Rspan.names.short,E11names
779,112.0,D,20.0,card,3.0,3,line,7735.0,Rspan.names.short,E11names
780,112.0,D,20.0,line,4.0,,,5320.0,Rspan.names.short,E11names
781,112.0,S,21.0,cream,0.0,0,cream,5314.0,Rspan.names.short,E11names
782,112.0,S,21.0,team,1.0,1,team,6950.0,Rspan.names.short,E11names
783,112.0,S,21.0,steam,2.0,2,steam,5959.0,Rspan.names.short,E11names
784,112.0,S,22.0,mail,0.0,0,mail,5634.0,Rspan.names.short,E11names
785,112.0,S,22.0,sail,1.0,1,,6073.0,Rspan.names.short,E11names
786,112.0,S,22.0,trail,2.0,2,,6678.0,Rspan.names.short,E11names
787,112.0,S,22.0,wail,3.0,3,tail,6307.0,Rspan.names.short,E11names
788,112.0,S,22.0,tail,4.0,4,jail,8446.0,Rspan.names.short,E11names
789,112.0,S,22.0,jail,5.0,,,6067.0,Rspan.names.short,E11names
790,112.0,S,23.0,band,0.0,0,band,5630.0,Rspan.names.short,E11names
791,112.0,S,23.0,land,1.0,1,hand,7126.0,Rspan.names.short,E11names
792,112.0,S,23.0,stand,2.0,2,stand,6904.0,Rspan.names.short,E11names
793,112.0,S,23.0,hand,3.0,3,land,6571.0,Rspan.names.short,E11names
794,112.0,D,24.0,deck,0.0,0,deck,5851.0,Rspan.names.short,E11names
795,112.0,D,24.0,slice,1.0,1,slice,6801.0,Rspan.names.short,E11names
796,112.0,D,24.0,rat,2.0,2,rat,6352.0,Rspan.names.short,E11names
797,112.0,S,25.0,pie,0.0,0,pie,5994.0,Rspan.names.short,E11names
798,112.0,S,25.0,fly,1.0,1,,6052.0,Rspan.names.short,E11names
799,112.0,S,25.0,tie,2.0,2,,6522.0,Rspan.names.short,E11names
800,112.0,S,25.0,sky,3.0,3,sky,6588.0,Rspan.names.short,E11names
801,112.0,S,25.0,eye,4.0,4,eye,7628.0,Rspan.names.short,E11names
802,112.0,D,26.0,shell,0.0,0,,6047.0,Rspan.names.short,E11names
803,112.0,D,26.0,tree,1.0,1,,6510.0,Rspan.names.short,E11names
804,112.0,D,26.0,bowl,2.0,2,,6441.0,Rspan.names.short,E11names
805,112.0,D,26.0,broom,3.0,3,test,6127.0,Rspan.names.short,E11names
806,112.0,D,26.0,test,4.0,4,ground,8226.0,Rspan.names.short,E11names
807,112.0,D,26.0,ground,5.0,,,6616.0,Rspan.names.short,E11names
808,112.0,D,27.0,mare,0.0,0,,5839.0,Rspan.names.short,E11names
809,112.0,D,27.0,bell,1.0,1,,6190.0,Rspan.names.short,E11names
810,112.0,D,27.0,brain,2.0,2,beef,6854.0,Rspan.names.short,E11names
811,112.0,D,27.0,beef,3.0,,,5940.0,Rspan.names.short,E11names
812,77.0,P,0.0,hood,0.0,0,hood,5756.0,Rspan.names.short,E11names
813,77.0,P,0.0,wood,1.0,1,wood,5831.0,Rspan.names.short,E11names
814,77.0,P,1.0,earth,0.0,0,earth,5085.0,Rspan.names.short,E11names
815,77.0,P,1.0,peach,1.0,1,peach,5169.0,Rspan.names.short,E11names
816,77.0,P,2.0,farm,0.0,0,farm,6061.0,Rspan.names.short,E11names
817,77.0,P,2.0,arm,1.0,1,arm,7283.0,Rspan.names.short,E11names
818,77.0,P,3.0,bath,0.0,0,bath,5922.0,Rspan.names.short,E11names
819,77.0,P,3.0,dawn,1.0,1,dawn,6285.0,Rspan.names.short,E11names
820,77.0,S,4.0,bread,0.0,0,head,5026.0,Rspan.names.short,E11names
821,77.0,S,4.0,head,1.0,1,,4970.0,Rspan.names.short,E11names
822,77.0,S,4.0,thread,2.0,2,thread,10165.0,Rspan.names.short,E11names
823,77.0,S,4.0,bed,3.0,3,bed,7763.0,Rspan.names.short,E11names
824,77.0,D,5.0,neck,0.0,0,neck,6871.0,Rspan.names.short,E11names
825,77.0,D,5.0,town,1.0,1,town,6163.0,Rspan.names.short,E11names
826,77.0,D,5.0,hat,2.0,2,,8653.0,Rspan.names.short,E11names
827,77.0,D,5.0,street,3.0,3,street,7888.0,Rspan.names.short,E11names
828,77.0,D,6.0,path,0.0,0,path,4715.0,Rspan.names.short,E11names
829,77.0,D,6.0,nest,1.0,1,nest,5679.0,Rspan.names.short,E11names
830,77.0,D,6.0,square,2.0,2,square,7677.0,Rspan.names.short,E11names
831,77.0,D,6.0,wood,3.0,3,wood,8809.0,Rspan.names.short,E11names
832,77.0,D,6.0,beach,4.0,4,,7230.0,Rspan.names.short,E11names
833,77.0,S,7.0,cream,0.0,0,cream,8363.0,Rspan.names.short,E11names
834,77.0,S,7.0,team,1.0,1,team,6483.0,Rspan.names.short,E11names
835,77.0,S,7.0,steam,2.0,2,steam,8400.0,Rspan.names.short,E11names
836,77.0,D,8.0,rice,0.0,0,rice,6153.0,Rspan.names.short,E11names
837,77.0,D,8.0,cat,1.0,1,cat,8235.0,Rspan.names.short,E11names
838,77.0,D,8.0,trash,2.0,2,trash,7848.0,Rspan.names.short,E11names
839,77.0,S,9.0,doll,0.0,0,doll,6526.0,Rspan.names.short,E11names
840,77.0,S,9.0,ball,1.0,1,,7097.0,Rspan.names.short,E11names
841,77.0,S,9.0,shawl,2.0,2,shawl,9099.0,Rspan.names.short,E11names
842,77.0,S,9.0,hall,3.0,3,hall,12749.0,Rspan.names.short,E11names
843,77.0,S,9.0,brawl,4.0,4,brawl,8218.0,Rspan.names.short,E11names
844,77.0,S,9.0,wall,5.0,5,wall,6222.0,Rspan.names.short,E11names
845,77.0,S,10.0,king,0.0,0,king,4823.0,Rspan.names.short,E11names
846,77.0,S,10.0,ring,1.0,1,ring,6073.0,Rspan.names.short,E11names
847,77.0,S,10.0,spring,2.0,2,spring,6926.0,Rspan.names.short,E11names
848,77.0,S,10.0,string,3.0,3,string,6360.0,Rspan.names.short,E11names
849,77.0,S,10.0,wing,4.0,4,wing,7746.0,Rspan.names.short,E11names
850,77.0,D,11.0,coin,0.0,0,coin,5616.0,Rspan.names.short,E11names
851,77.0,D,11.0,film,1.0,1,,6231.0,Rspan.names.short,E11names
852,77.0,D,11.0,leaf,2.0,2,leaf,15455.0,Rspan.names.short,E11names
853,77.0,D,11.0,train,3.0,3,,10772.0,Rspan.names.short,E11names
854,77.0,D,11.0,map,4.0,4,,8873.0,Rspan.names.short,E11names
855,77.0,D,11.0,art,5.0,5,,6860.0,Rspan.names.short,E11names
856,77.0,D,12.0,ant,0.0,0,ant,5401.0,Rspan.names.short,E11names
857,77.0,D,12.0,air,1.0,1,air,7217.0,Rspan.names.short,E11names
858,77.0,D,12.0,ink,2.0,2,,8712.0,Rspan.names.short,E11names
859,77.0,D,12.0,cloud,3.0,3,cloud,6616.0,Rspan.names.short,E11names
860,77.0,D,12.0,seat,4.0,4,seat,8640.0,Rspan.names.short,E11names
861,77.0,D,12.0,breath,5.0,5,breath,8660.0,Rspan.names.short,E11names
862,77.0,S,13.0,deer,0.0,0,deer,7207.0,Rspan.names.short,E11names
863,77.0,S,13.0,sphere,1.0,1,sphere,5710.0,Rspan.names.short,E11names
864,77.0,S,13.0,ear,2.0,2,ear,6955.0,Rspan.names.short,E11names
865,77.0,S,13.0,tear,3.0,3,tear,6636.0,Rspan.names.short,E11names
866,77.0,D,14.0,chest,0.0,0,chest,5332.0,Rspan.names.short,E11names
867,77.0,D,14.0,lane,1.0,1,lane,6464.0,Rspan.names.short,E11names
868,77.0,D,14.0,hair,2.0,2,hair,9485.0,Rspan.names.short,E11names
869,77.0,D,14.0,crown,3.0,3,crown,10711.0,Rspan.names.short,E11names
870,77.0,S,15.0,boot,0.0,0,boot,5407.0,Rspan.names.short,E11names
871,77.0,S,15.0,suit,1.0,1,suit,5400.0,Rspan.names.short,E11names
872,77.0,S,15.0,flute,2.0,2,flute,5832.0,Rspan.names.short,E11names
873,77.0,S,15.0,loot,3.0,3,root,5623.0,Rspan.names.short,E11names
874,77.0,S,15.0,root,4.0,4,brute,8231.0,Rspan.names.short,E11names
875,77.0,S,15.0,brute,5.0,,,7604.0,Rspan.names.short,E11names
876,77.0,D,16.0,toy,0.0,0,toy,5781.0,Rspan.names.short,E11names
877,77.0,D,16.0,wreck,1.0,1,wreck,6855.0,Rspan.names.short,E11names
878,77.0,D,16.0,frown,2.0,2,frown,14108.0,Rspan.names.short,E11names
879,77.0,S,17.0,blouse,0.0,0,crown,6161.0,Rspan.names.short,E11names
880,77.0,S,17.0,house,1.0,1,house,14667.0,Rspan.names.short,E11names
881,77.0,S,17.0,mouse,2.0,2,mouse,7368.0,Rspan.names.short,E11names
882,77.0,S,18.0,jar,0.0,0,jar,5723.0,Rspan.names.short,E11names
883,77.0,S,18.0,bar,1.0,1,bar,8055.0,Rspan.names.short,E11names
884,77.0,S,18.0,car,2.0,2,car,7644.0,Rspan.names.short,E11names
885,77.0,S,18.0,scar,3.0,3,scar,6897.0,Rspan.names.short,E11names
886,77.0,S,18.0,star,4.0,4,star,7541.0,Rspan.names.short,E11names
887,77.0,D,19.0,spice,0.0,0,spice,5313.0,Rspan.names.short,E11names
888,77.0,D,19.0,heat,1.0,1,heat,5742.0,Rspan.names.short,E11names
889,77.0,D,19.0,shape,2.0,2,shape,7874.0,Rspan.names.short,E11names
890,77.0,D,19.0,pear,3.0,3,pear,7100.0,Rspan.names.short,E11names
891,77.0,D,19.0,guest,4.0,4,guest,7463.0,Rspan.names.short,E11names
892,77.0,S,20.0,bone,0.0,0,bone,5178.0,Rspan.names.short,E11names
893,77.0,S,20.0,phone,1.0,1,phone,7755.0,Rspan.names.short,E11names
894,77.0,S,20.0,stone,2.0,2,stone,5780.0,Rspan.names.short,E11names
895,77.0,D,21.0,deck,0.0,0,deck,4461.0,Rspan.names.short,E11names
896,77.0,D,21.0,slice,1.0,1,slice,6413.0,Rspan.names.short,E11names
897,77.0,D,21.0,rat,2.0,2,rat,6091.0,Rspan.names.short,E11names
898,77.0,D,22.0,shell,0.0,0,shell,6241.0,Rspan.names.short,E11names
899,77.0,D,22.0,tree,1.0,1,tree,6103.0,Rspan.names.short,E11names
900,77.0,D,22.0,bowl,2.0,2,bowl,6746.0,Rspan.names.short,E11names
901,77.0,D,22.0,broom,3.0,3,broom,7189.0,Rspan.names.short,E11names
902,77.0,D,22.0,test,4.0,4,test,5317.0,Rspan.names.short,E11names
903,77.0,D,22.0,ground,5.0,5,ground,9216.0,Rspan.names.short,E11names
904,77.0,D,23.0,beard,0.0,0,beard,5306.0,Rspan.names.short,E11names
905,77.0,D,23.0,hill,1.0,1,hill,5903.0,Rspan.names.short,E11names
906,77.0,D,23.0,dirt,2.0,2,,6075.0,Rspan.names.short,E11names
907,77.0,D,23.0,card,3.0,3,,7575.0,Rspan.names.short,E11names
908,77.0,D,23.0,line,4.0,4,line,8080.0,Rspan.names.short,E11names
909,77.0,S,24.0,mail,0.0,0,mail,5478.0,Rspan.names.short,E11names
910,77.0,S,24.0,sail,1.0,1,sail,7204.0,Rspan.names.short,E11names
911,77.0,S,24.0,trail,2.0,2,trail,5162.0,Rspan.names.short,E11names
912,77.0,S,24.0,wail,3.0,3,wail,7782.0,Rspan.names.short,E11names
913,77.0,S,24.0,tail,4.0,4,tail,8430.0,Rspan.names.short,E11names
914,77.0,S,24.0,jail,5.0,5,,6443.0,Rspan.names.short,E11names
915,77.0,S,25.0,pie,0.0,0,,5838.0,Rspan.names.short,E11names
916,77.0,S,25.0,fly,1.0,1,fly,6709.0,Rspan.names.short,E11names
917,77.0,S,25.0,tie,2.0,2,,5096.0,Rspan.names.short,E11names
918,77.0,S,25.0,sky,3.0,3,sky,9870.0,Rspan.names.short,E11names
919,77.0,S,25.0,eye,4.0,4,,10008.0,Rspan.names.short,E11names
920,77.0,D,26.0,mare,0.0,0,mare,7335.0,Rspan.names.short,E11names
921,77.0,D,26.0,bell,1.0,1,bell,7337.0,Rspan.names.short,E11names
922,77.0,D,26.0,brain,2.0,2,brain,8914.0,Rspan.names.short,E11names
923,77.0,D,26.0,beef,3.0,3,beef,7867.0,Rspan.names.short,E11names
924,77.0,S,27.0,band,0.0,0,band,5091.0,Rspan.names.short,E11names
925,77.0,S,27.0,land,1.0,1,land,8303.0,Rspan.names.short,E11names
926,77.0,S,27.0,stand,2.0,2,stand,5306.0,Rspan.names.short,E11names
927,77.0,S,27.0,hand,3.0,3,hand,7414.0,Rspan.names.short,E11names
928,78.0,P,0.0,farm,0.0,0,farm,4719.0,Rspan.names.short,E11names
929,78.0,P,0.0,arm,1.0,1,arm,4596.0,Rspan.names.short,E11names
930,78.0,P,1.0,earth,0.0,0,earth,3995.0,Rspan.names.short,E11names
931,78.0,P,1.0,peach,1.0,1,peach,4003.0,Rspan.names.short,E11names
932,78.0,P,2.0,bath,0.0,0,bath,3826.0,Rspan.names.short,E11names
933,78.0,P,2.0,dawn,1.0,1,dawn,4332.0,Rspan.names.short,E11names
934,78.0,P,3.0,hood,0.0,0,hood,3849.0,Rspan.names.short,E11names
935,78.0,P,3.0,wood,1.0,1,wood,4202.0,Rspan.names.short,E11names
936,78.0,D,4.0,rice,0.0,0,rice,4709.0,Rspan.names.short,E11names
937,78.0,D,4.0,cat,1.0,1,cat,4354.0,Rspan.names.short,E11names
938,78.0,D,4.0,trash,2.0,2,trash,4692.0,Rspan.names.short,E11names
939,78.0,S,5.0,bread,0.0,0,bread,4041.0,Rspan.names.short,E11names
940,78.0,S,5.0,head,1.0,1,head,3994.0,Rspan.names.short,E11names
941,78.0,S,5.0,thread,2.0,2,thread,4750.0,Rspan.names.short,E11names
942,78.0,S,5.0,bed,3.0,3,bed,5208.0,Rspan.names.short,E11names
943,78.0,S,6.0,doll,0.0,0,doll,3806.0,Rspan.names.short,E11names
944,78.0,S,6.0,ball,1.0,1,ball,3848.0,Rspan.names.short,E11names
945,78.0,S,6.0,shawl,2.0,2,shawl,4440.0,Rspan.names.short,E11names
946,78.0,S,6.0,hall,3.0,3,brawl,5112.0,Rspan.names.short,E11names
947,78.0,S,6.0,brawl,4.0,4,wall,5292.0,Rspan.names.short,E11names
948,78.0,S,6.0,wall,5.0,,,5066.0,Rspan.names.short,E11names
949,78.0,D,7.0,path,0.0,0,path,4204.0,Rspan.names.short,E11names
950,78.0,D,7.0,nest,1.0,1,nest,4766.0,Rspan.names.short,E11names
951,78.0,D,7.0,square,2.0,2,square,4416.0,Rspan.names.short,E11names
952,78.0,D,7.0,wood,3.0,3,wood,4560.0,Rspan.names.short,E11names
953,78.0,D,7.0,beach,4.0,4,beach,4963.0,Rspan.names.short,E11names
954,78.0,D,8.0,neck,0.0,0,neck,4045.0,Rspan.names.short,E11names
955,78.0,D,8.0,town,1.0,1,town,4566.0,Rspan.names.short,E11names
956,78.0,D,8.0,hat,2.0,2,hat,4152.0,Rspan.names.short,E11names
957,78.0,D,8.0,street,3.0,3,street,5123.0,Rspan.names.short,E11names
958,78.0,S,9.0,king,0.0,0,king,4329.0,Rspan.names.short,E11names
959,78.0,S,9.0,ring,1.0,1,ring,4870.0,Rspan.names.short,E11names
960,78.0,S,9.0,spring,2.0,2,,4508.0,Rspan.names.short,E11names
961,78.0,S,9.0,string,3.0,3,spring,4290.0,Rspan.names.short,E11names
962,78.0,S,9.0,wing,4.0,4,wing,5072.0,Rspan.names.short,E11names
963,78.0,D,10.0,coin,0.0,0,,5901.0,Rspan.names.short,E11names
964,78.0,D,10.0,film,1.0,1,coin,4577.0,Rspan.names.short,E11names
965,78.0,D,10.0,leaf,2.0,2,,4925.0,Rspan.names.short,E11names
966,78.0,D,10.0,train,3.0,3,,5105.0,Rspan.names.short,E11names
967,78.0,D,10.0,map,4.0,4,map,6958.0,Rspan.names.short,E11names
968,78.0,D,10.0,art,5.0,5,art,5239.0,Rspan.names.short,E11names
969,78.0,S,11.0,bone,0.0,0,bone,5172.0,Rspan.names.short,E11names
970,78.0,S,11.0,phone,1.0,1,phone,4942.0,Rspan.names.short,E11names
971,78.0,S,11.0,stone,2.0,2,stone,4025.0,Rspan.names.short,E11names
972,78.0,D,12.0,toy,0.0,0,toy,4205.0,Rspan.names.short,E11names
973,78.0,D,12.0,wreck,1.0,1,wreck,4190.0,Rspan.names.short,E11names
974,78.0,D,12.0,frown,2.0,2,frown,4986.0,Rspan.names.short,E11names
975,78.0,S,13.0,boot,0.0,0,boot,4075.0,Rspan.names.short,E11names
976,78.0,S,13.0,suit,1.0,1,suit,4227.0,Rspan.names.short,E11names
977,78.0,S,13.0,flute,2.0,2,flute,5068.0,Rspan.names.short,E11names
978,78.0,S,13.0,loot,3.0,3,loot,4419.0,Rspan.names.short,E11names
979,78.0,S,13.0,root,4.0,4,boot,5554.0,Rspan.names.short,E11names
980,78.0,S,13.0,brute,5.0,,,4549.0,Rspan.names.short,E11names
981,78.0,S,14.0,deer,0.0,0,deer,4480.0,Rspan.names.short,E11names
982,78.0,S,14.0,sphere,1.0,1,sphere,4374.0,Rspan.names.short,E11names
983,78.0,S,14.0,ear,2.0,2,ear,5265.0,Rspan.names.short,E11names
984,78.0,S,14.0,tear,3.0,3,tear,5238.0,Rspan.names.short,E11names
985,78.0,D,15.0,ant,0.0,0,ant,4832.0,Rspan.names.short,E11names
986,78.0,D,15.0,air,1.0,1,air,4024.0,Rspan.names.short,E11names
987,78.0,D,15.0,ink,2.0,2,,5226.0,Rspan.names.short,E11names
988,78.0,D,15.0,cloud,3.0,3,cloud,6026.0,Rspan.names.short,E11names
989,78.0,D,15.0,seat,4.0,4,breath,4617.0,Rspan.names.short,E11names
990,78.0,D,15.0,breath,5.0,,,3977.0,Rspan.names.short,E11names
991,78.0,S,16.0,cream,0.0,0,team,4549.0,Rspan.names.short,E11names
992,78.0,S,16.0,team,1.0,1,cream,4303.0,Rspan.names.short,E11names
993,78.0,S,16.0,steam,2.0,2,steam,4462.0,Rspan.names.short,E11names
994,78.0,S,17.0,jar,0.0,0,jar,4092.0,Rspan.names.short,E11names
995,78.0,S,17.0,bar,1.0,1,bar,5355.0,Rspan.names.short,E11names
996,78.0,S,17.0,car,2.0,2,car,4806.0,Rspan.names.short,E11names
997,78.0,S,17.0,scar,3.0,3,scar,4703.0,Rspan.names.short,E11names
998,78.0,S,17.0,star,4.0,4,star,5532.0,Rspan.names.short,E11names
999,78.0,D,18.0,chest,0.0,0,chest,4309.0,Rspan.names.short,E11names
1000,78.0,D,18.0,lane,1.0,1,lane,5884.0,Rspan.names.short,E11names
1001,78.0,D,18.0,hair,2.0,2,hair,6392.0,Rspan.names.short,E11names
1002,78.0,D,18.0,crown,3.0,3,crown,5064.0,Rspan.names.short,E11names
1003,78.0,D,19.0,spice,0.0,0,spice,4589.0,Rspan.names.short,E11names
1004,78.0,D,19.0,heat,1.0,1,heat,5272.0,Rspan.names.short,E11names
1005,78.0,D,19.0,shape,2.0,2,shape,4006.0,Rspan.names.short,E11names
1006,78.0,D,19.0,pear,3.0,3,pear,6376.0,Rspan.names.short,E11names
1007,78.0,D,19.0,guest,4.0,4,guest,4745.0,Rspan.names.short,E11names
1008,78.0,S,20.0,band,0.0,0,band,4435.0,Rspan.names.short,E11names
1009,78.0,S,20.0,land,1.0,1,land,4843.0,Rspan.names.short,E11names
1010,78.0,S,20.0,stand,2.0,2,stand,3818.0,Rspan.names.short,E11names
1011,78.0,S,20.0,hand,3.0,3,hand,6948.0,Rspan.names.short,E11names
1012,78.0,D,21.0,shell,0.0,0,shell,5150.0,Rspan.names.short,E11names
1013,78.0,D,21.0,tree,1.0,1,tree,4111.0,Rspan.names.short,E11names
1014,78.0,D,21.0,bowl,2.0,2,bowl,4590.0,Rspan.names.short,E11names
1015,78.0,D,21.0,broom,3.0,3,test,5152.0,Rspan.names.short,E11names
1016,78.0,D,21.0,test,4.0,4,ground,5818.0,Rspan.names.short,E11names
1017,78.0,D,21.0,ground,5.0,,,5281.0,Rspan.names.short,E11names
1018,78.0,D,22.0,deck,0.0,0,deck,4409.0,Rspan.names.short,E11names
1019,78.0,D,22.0,slice,1.0,1,slice,4299.0,Rspan.names.short,E11names
1020,78.0,D,22.0,rat,2.0,2,rat,6344.0,Rspan.names.short,E11names
1021,78.0,D,23.0,beard,0.0,0,beard,4140.0,Rspan.names.short,E11names
1022,78.0,D,23.0,hill,1.0,1,hill,4753.0,Rspan.names.short,E11names
1023,78.0,D,23.0,dirt,2.0,2,,5268.0,Rspan.names.short,E11names
1024,78.0,D,23.0,card,3.0,3,card,5578.0,Rspan.names.short,E11names
1025,78.0,D,23.0,line,4.0,4,line,4924.0,Rspan.names.short,E11names
1026,78.0,S,24.0,blouse,0.0,0,blouse,4833.0,Rspan.names.short,E11names
1027,78.0,S,24.0,house,1.0,1,house,4865.0,Rspan.names.short,E11names
1028,78.0,S,24.0,mouse,2.0,2,mouse,4071.0,Rspan.names.short,E11names
1029,78.0,S,25.0,mail,0.0,0,mail,5205.0,Rspan.names.short,E11names
1030,78.0,S,25.0,sail,1.0,1,sail,5006.0,Rspan.names.short,E11names
1031,78.0,S,25.0,trail,2.0,2,wail,5254.0,Rspan.names.short,E11names
1032,78.0,S,25.0,wail,3.0,3,,6172.0,Rspan.names.short,E11names
1033,78.0,S,25.0,tail,4.0,4,jail,4414.0,Rspan.names.short,E11names
1034,78.0,S,25.0,jail,5.0,,,6679.0,Rspan.names.short,E11names
1035,78.0,S,26.0,pie,0.0,0,pie,4473.0,Rspan.names.short,E11names
1036,78.0,S,26.0,fly,1.0,1,fly,4991.0,Rspan.names.short,E11names
1037,78.0,S,26.0,tie,2.0,2,tie,4562.0,Rspan.names.short,E11names
1038,78.0,S,26.0,sky,3.0,3,sky,6013.0,Rspan.names.short,E11names
1039,78.0,S,26.0,eye,4.0,4,eye,6044.0,Rspan.names.short,E11names
1040,78.0,D,27.0,mare,0.0,0,mare,5442.0,Rspan.names.short,E11names
1041,78.0,D,27.0,bell,1.0,1,bell,5233.0,Rspan.names.short,E11names
1042,78.0,D,27.0,brain,2.0,2,brain,5352.0,Rspan.names.short,E11names
1043,78.0,D,27.0,beef,3.0,3,beef,7603.0,Rspan.names.short,E11names
1044,79.0,P,0.0,farm,0.0,0,farm,4234.0,Rspan.names.short,E11names
1045,79.0,P,0.0,arm,1.0,1,arm,4442.0,Rspan.names.short,E11names
1046,79.0,P,1.0,bath,0.0,0,,3988.0,Rspan.names.short,E11names
1047,79.0,P,1.0,dawn,1.0,1,dawn,3974.0,Rspan.names.short,E11names
1048,79.0,P,2.0,earth,0.0,0,earth,3898.0,Rspan.names.short,E11names
1049,79.0,P,2.0,peach,1.0,1,peach,4281.0,Rspan.names.short,E11names
1050,79.0,P,3.0,hood,0.0,0,hood,3998.0,Rspan.names.short,E11names
1051,79.0,P,3.0,wood,1.0,1,wood,3841.0,Rspan.names.short,E11names
1052,79.0,D,4.0,path,0.0,0,,4389.0,Rspan.names.short,E11names
1053,79.0,D,4.0,nest,1.0,1,,3856.0,Rspan.names.short,E11names
1054,79.0,D,4.0,square,2.0,2,square,4504.0,Rspan.names.short,E11names
1055,79.0,D,4.0,wood,3.0,3,wood,4861.0,Rspan.names.short,E11names
1056,79.0,D,4.0,beach,4.0,4,beach,4532.0,Rspan.names.short,E11names
1057,79.0,D,5.0,rice,0.0,0,rice,4143.0,Rspan.names.short,E11names
1058,79.0,D,5.0,cat,1.0,1,cat,4268.0,Rspan.names.short,E11names
1059,79.0,D,5.0,trash,2.0,2,trash,3723.0,Rspan.names.short,E11names
1060,79.0,S,6.0,blouse,0.0,0,blouse,3888.0,Rspan.names.short,E11names
1061,79.0,S,6.0,house,1.0,1,house,3566.0,Rspan.names.short,E11names
1062,79.0,S,6.0,mouse,2.0,2,mouse,4459.0,Rspan.names.short,E11names
1063,79.0,D,7.0,neck,0.0,0,,3740.0,Rspan.names.short,E11names
1064,79.0,D,7.0,town,1.0,1,,3633.0,Rspan.names.short,E11names
1065,79.0,D,7.0,hat,2.0,2,hat,4440.0,Rspan.names.short,E11names
1066,79.0,D,7.0,street,3.0,3,street,5809.0,Rspan.names.short,E11names
1067,79.0,D,8.0,coin,0.0,0,coin,4243.0,Rspan.names.short,E11names
1068,79.0,D,8.0,film,1.0,1,film,4252.0,Rspan.names.short,E11names
1069,79.0,D,8.0,leaf,2.0,2,leaf,4284.0,Rspan.names.short,E11names
1070,79.0,D,8.0,train,3.0,3,,4553.0,Rspan.names.short,E11names
1071,79.0,D,8.0,map,4.0,4,,5629.0,Rspan.names.short,E11names
1072,79.0,D,8.0,art,5.0,5,art,4877.0,Rspan.names.short,E11names
1073,79.0,S,9.0,king,0.0,0,king,3660.0,Rspan.names.short,E11names
1074,79.0,S,9.0,ring,1.0,1,ring,3444.0,Rspan.names.short,E11names
1075,79.0,S,9.0,spring,2.0,2,,4068.0,Rspan.names.short,E11names
1076,79.0,S,9.0,string,3.0,3,wing,5524.0,Rspan.names.short,E11names
1077,79.0,S,9.0,wing,4.0,,,5360.0,Rspan.names.short,E11names
1078,79.0,S,10.0,doll,0.0,0,doll,3511.0,Rspan.names.short,E11names
1079,79.0,S,10.0,ball,1.0,1,ball,3991.0,Rspan.names.short,E11names
1080,79.0,S,10.0,shawl,2.0,2,shawl,4865.0,Rspan.names.short,E11names
1081,79.0,S,10.0,hall,3.0,3,,3831.0,Rspan.names.short,E11names
1082,79.0,S,10.0,brawl,4.0,4,hall,5240.0,Rspan.names.short,E11names
1083,79.0,S,10.0,wall,5.0,,,3640.0,Rspan.names.short,E11names
1084,79.0,S,11.0,bread,0.0,0,bread,3461.0,Rspan.names.short,E11names
1085,79.0,S,11.0,head,1.0,1,,3590.0,Rspan.names.short,E11names
1086,79.0,S,11.0,thread,2.0,2,bed,4184.0,Rspan.names.short,E11names
1087,79.0,S,11.0,bed,3.0,3,,3483.0,Rspan.names.short,E11names
1088,79.0,S,12.0,boot,0.0,0,suit,4161.0,Rspan.names.short,E11names
1089,79.0,S,12.0,suit,1.0,1,boot,3982.0,Rspan.names.short,E11names
1090,79.0,S,12.0,flute,2.0,2,flute,6104.0,Rspan.names.short,E11names
1091,79.0,S,12.0,loot,3.0,3,brute,4757.0,Rspan.names.short,E11names
1092,79.0,S,12.0,root,4.0,4,root,4688.0,Rspan.names.short,E11names
1093,79.0,S,12.0,brute,5.0,,,4926.0,Rspan.names.short,E11names
1094,79.0,D,13.0,toy,0.0,0,train,3459.0,Rspan.names.short,E11names
1095,79.0,D,13.0,wreck,1.0,1,wreck,3450.0,Rspan.names.short,E11names
1096,79.0,D,13.0,frown,2.0,2,frown,5275.0,Rspan.names.short,E11names
1097,79.0,S,14.0,deer,0.0,0,,4034.0,Rspan.names.short,E11names
1098,79.0,S,14.0,sphere,1.0,1,sphere,4915.0,Rspan.names.short,E11names
1099,79.0,S,14.0,ear,2.0,2,ear,3903.0,Rspan.names.short,E11names
1100,79.0,S,14.0,tear,3.0,3,tear,4357.0,Rspan.names.short,E11names
1101,79.0,S,15.0,cream,0.0,0,,3674.0,Rspan.names.short,E11names
1102,79.0,S,15.0,team,1.0,1,team,3449.0,Rspan.names.short,E11names
1103,79.0,S,15.0,steam,2.0,2,steam,4249.0,Rspan.names.short,E11names
1104,79.0,D,16.0,ant,0.0,0,ant,3611.0,Rspan.names.short,E11names
1105,79.0,D,16.0,air,1.0,1,air,3702.0,Rspan.names.short,E11names
1106,79.0,D,16.0,ink,2.0,2,,4085.0,Rspan.names.short,E11names
1107,79.0,D,16.0,cloud,3.0,3,seat,5027.0,Rspan.names.short,E11names
1108,79.0,D,16.0,seat,4.0,4,,4227.0,Rspan.names.short,E11names
1109,79.0,D,16.0,breath,5.0,,,3244.0,Rspan.names.short,E11names
1110,79.0,D,17.0,spice,0.0,0,spice,3748.0,Rspan.names.short,E11names
1111,79.0,D,17.0,heat,1.0,1,heat,4009.0,Rspan.names.short,E11names
1112,79.0,D,17.0,shape,2.0,2,,4490.0,Rspan.names.short,E11names
1113,79.0,D,17.0,pear,3.0,3,guest,4449.0,Rspan.names.short,E11names
1114,79.0,D,17.0,guest,4.0,,,3448.0,Rspan.names.short,E11names
1115,79.0,D,18.0,chest,0.0,0,chest,4886.0,Rspan.names.short,E11names
1116,79.0,D,18.0,lane,1.0,1,,4259.0,Rspan.names.short,E11names
1117,79.0,D,18.0,hair,2.0,2,crown,4595.0,Rspan.names.short,E11names
1118,79.0,D,18.0,crown,3.0,,,4341.0,Rspan.names.short,E11names
1119,79.0,S,19.0,jar,0.0,0,bar,3657.0,Rspan.names.short,E11names
1120,79.0,S,19.0,bar,1.0,1,,4635.0,Rspan.names.short,E11names
1121,79.0,S,19.0,car,2.0,2,,3579.0,Rspan.names.short,E11names
1122,79.0,S,19.0,scar,3.0,3,star,5366.0,Rspan.names.short,E11names
1123,79.0,S,19.0,star,4.0,,,4063.0,Rspan.names.short,E11names
1124,79.0,D,20.0,deck,0.0,0,deck,4421.0,Rspan.names.short,E11names
1125,79.0,D,20.0,slice,1.0,1,slice,4965.0,Rspan.names.short,E11names
1126,79.0,D,20.0,rat,2.0,2,rat,5568.0,Rspan.names.short,E11names
1127,79.0,S,21.0,bone,0.0,0,,4063.0,Rspan.names.short,E11names
1128,79.0,S,21.0,phone,1.0,1,bone,3615.0,Rspan.names.short,E11names
1129,79.0,S,21.0,stone,2.0,2,phone,3656.0,Rspan.names.short,E11names
1130,79.0,S,22.0,pie,0.0,0,tie,3824.0,Rspan.names.short,E11names
1131,79.0,S,22.0,fly,1.0,1,,3249.0,Rspan.names.short,E11names
1132,79.0,S,22.0,tie,2.0,2,fly,3929.0,Rspan.names.short,E11names
1133,79.0,S,22.0,sky,3.0,3,eye,4183.0,Rspan.names.short,E11names
1134,79.0,S,22.0,eye,4.0,,,4514.0,Rspan.names.short,E11names
1135,79.0,S,23.0,mail,0.0,0,mail,4611.0,Rspan.names.short,E11names
1136,79.0,S,23.0,sail,1.0,1,sail,3963.0,Rspan.names.short,E11names
1137,79.0,S,23.0,trail,2.0,2,trail,3975.0,Rspan.names.short,E11names
1138,79.0,S,23.0,wail,3.0,3,wail,5027.0,Rspan.names.short,E11names
1139,79.0,S,23.0,tail,4.0,4,jail,4995.0,Rspan.names.short,E11names
1140,79.0,S,23.0,jail,5.0,,,4396.0,Rspan.names.short,E11names
1141,79.0,S,24.0,band,0.0,0,band,3545.0,Rspan.names.short,E11names
1142,79.0,S,24.0,land,1.0,1,stand,3501.0,Rspan.names.short,E11names
1143,79.0,S,24.0,stand,2.0,2,hand,4141.0,Rspan.names.short,E11names
1144,79.0,S,24.0,hand,3.0,,,4609.0,Rspan.names.short,E11names
1145,79.0,D,25.0,mare,0.0,0,,4015.0,Rspan.names.short,E11names
1146,79.0,D,25.0,bell,1.0,1,,4089.0,Rspan.names.short,E11names
1147,79.0,D,25.0,brain,2.0,2,beef,3743.0,Rspan.names.short,E11names
1148,79.0,D,25.0,beef,3.0,,,4396.0,Rspan.names.short,E11names
1149,79.0,D,26.0,shell,0.0,0,,3797.0,Rspan.names.short,E11names
1150,79.0,D,26.0,tree,1.0,1,,3144.0,Rspan.names.short,E11names
1151,79.0,D,26.0,bowl,2.0,2,,4405.0,Rspan.names.short,E11names
1152,79.0,D,26.0,broom,3.0,3,test,3470.0,Rspan.names.short,E11names
1153,79.0,D,26.0,test,4.0,4,ground,5438.0,Rspan.names.short,E11names
1154,79.0,D,26.0,ground,5.0,,,4149.0,Rspan.names.short,E11names
1155,79.0,D,27.0,beard,0.0,0,beard,4269.0,Rspan.names.short,E11names
1156,79.0,D,27.0,hill,1.0,1,hill,4268.0,Rspan.names.short,E11names
1157,79.0,D,27.0,dirt,2.0,2,,4403.0,Rspan.names.short,E11names
1158,79.0,D,27.0,card,3.0,3,yard,4868.0,Rspan.names.short,E11names
1159,79.0,D,27.0,line,4.0,4,line,3715.0,Rspan.names.short,E11names
1160,83.0,P,0.0,hood,0.0,0,hood,8228.0,Rspan.names.short,E11names
1161,83.0,P,0.0,wood,1.0,1,wood,8353.0,Rspan.names.short,E11names
1162,83.0,P,1.0,bath,0.0,0,bath,7190.0,Rspan.names.short,E11names
1163,83.0,P,1.0,dawn,1.0,1,dawn,4549.0,Rspan.names.short,E11names
1164,83.0,P,2.0,earth,0.0,0,earth,4794.0,Rspan.names.short,E11names
1165,83.0,P,2.0,peach,1.0,1,peach,4541.0,Rspan.names.short,E11names
1166,83.0,P,3.0,farm,0.0,0,farm,4432.0,Rspan.names.short,E11names
1167,83.0,P,3.0,arm,1.0,1,arm,4496.0,Rspan.names.short,E11names
1168,83.0,S,4.0,doll,0.0,0,hall,4253.0,Rspan.names.short,E11names
1169,83.0,S,4.0,ball,1.0,1,wall,4684.0,Rspan.names.short,E11names
1170,83.0,S,4.0,shawl,2.0,,,5425.0,Rspan.names.short,E11names
1171,83.0,S,4.0,hall,3.0,,,4201.0,Rspan.names.short,E11names
1172,83.0,S,4.0,brawl,4.0,,,4676.0,Rspan.names.short,E11names
1173,83.0,S,4.0,wall,5.0,,,5114.0,Rspan.names.short,E11names
1174,83.0,S,5.0,king,0.0,0,king,4666.0,Rspan.names.short,E11names
1175,83.0,S,5.0,ring,1.0,1,ring,4721.0,Rspan.names.short,E11names
1176,83.0,S,5.0,spring,2.0,2,swing,4461.0,Rspan.names.short,E11names
1177,83.0,S,5.0,string,3.0,3,,5605.0,Rspan.names.short,E11names
1178,83.0,S,5.0,wing,4.0,,,4405.0,Rspan.names.short,E11names
1179,83.0,D,6.0,path,0.0,0,path,5078.0,Rspan.names.short,E11names
1180,83.0,D,6.0,nest,1.0,1,beach,5061.0,Rspan.names.short,E11names
1181,83.0,D,6.0,square,2.0,,,5380.0,Rspan.names.short,E11names
1182,83.0,D,6.0,wood,3.0,,,5973.0,Rspan.names.short,E11names
1183,83.0,D,6.0,beach,4.0,,,5239.0,Rspan.names.short,E11names
1184,83.0,D,7.0,coin,0.0,0,film,5999.0,Rspan.names.short,E11names
1185,83.0,D,7.0,film,1.0,1,art,5358.0,Rspan.names.short,E11names
1186,83.0,D,7.0,leaf,2.0,,,4514.0,Rspan.names.short,E11names
1187,83.0,D,7.0,train,3.0,,,6287.0,Rspan.names.short,E11names
1188,83.0,D,7.0,map,4.0,,,3987.0,Rspan.names.short,E11names
1189,83.0,D,7.0,art,5.0,,,4780.0,Rspan.names.short,E11names
1190,83.0,D,8.0,neck,0.0,0,neck,5882.0,Rspan.names.short,E11names
1191,83.0,D,8.0,town,1.0,1,street,5151.0,Rspan.names.short,E11names
1192,83.0,D,8.0,hat,2.0,,,5162.0,Rspan.names.short,E11names
1193,83.0,D,8.0,street,3.0,,,6661.0,Rspan.names.short,E11names
1194,83.0,D,9.0,rice,0.0,0,rice,5477.0,Rspan.names.short,E11names
1195,83.0,D,9.0,cat,1.0,1,cat,5041.0,Rspan.names.short,E11names
1196,83.0,D,9.0,trash,2.0,2,trash,4978.0,Rspan.names.short,E11names
1197,83.0,S,10.0,bread,0.0,0,head,4579.0,Rspan.names.short,E11names
1198,83.0,S,10.0,head,1.0,1,bed,4742.0,Rspan.names.short,E11names
1199,83.0,S,10.0,thread,2.0,,,5257.0,Rspan.names.short,E11names
1200,83.0,S,10.0,bed,3.0,,,4720.0,Rspan.names.short,E11names
1201,83.0,S,11.0,cream,0.0,0,cream,5280.0,Rspan.names.short,E11names
1202,83.0,S,11.0,team,1.0,1,steam,5471.0,Rspan.names.short,E11names
1203,83.0,S,11.0,steam,2.0,,,4621.0,Rspan.names.short,E11names
1204,83.0,D,12.0,chest,0.0,0,chest,4981.0,Rspan.names.short,E11names
1205,83.0,D,12.0,lane,1.0,1,crown,4639.0,Rspan.names.short,E11names
1206,83.0,D,12.0,hair,2.0,,,4888.0,Rspan.names.short,E11names
1207,83.0,D,12.0,crown,3.0,,,5678.0,Rspan.names.short,E11names
1208,83.0,S,13.0,boot,0.0,0,boot,5604.0,Rspan.names.short,E11names
1209,83.0,S,13.0,suit,1.0,1,brute,5492.0,Rspan.names.short,E11names
1210,83.0,S,13.0,flute,2.0,,,4922.0,Rspan.names.short,E11names
1211,83.0,S,13.0,loot,3.0,,,5286.0,Rspan.names.short,E11names
1212,83.0,S,13.0,root,4.0,,,4491.0,Rspan.names.short,E11names
1213,83.0,S,13.0,brute,5.0,,,4858.0,Rspan.names.short,E11names
1214,83.0,S,14.0,deer,0.0,0,deer,5490.0,Rspan.names.short,E11names
1215,83.0,S,14.0,sphere,1.0,1,tear,5087.0,Rspan.names.short,E11names
1216,83.0,S,14.0,ear,2.0,,,5853.0,Rspan.names.short,E11names
1217,83.0,S,14.0,tear,3.0,,,4803.0,Rspan.names.short,E11names
1218,83.0,D,15.0,ant,0.0,0,breath,5222.0,Rspan.names.short,E11names
1219,83.0,D,15.0,air,1.0,,,4406.0,Rspan.names.short,E11names
1220,83.0,D,15.0,ink,2.0,,,6416.0,Rspan.names.short,E11names
1221,83.0,D,15.0,cloud,3.0,,,5135.0,Rspan.names.short,E11names
1222,83.0,D,15.0,seat,4.0,,,5371.0,Rspan.names.short,E11names
1223,83.0,D,15.0,breath,5.0,,,4588.0,Rspan.names.short,E11names
1224,83.0,S,16.0,jar,0.0,0,scar,9790.0,Rspan.names.short,E11names
1225,83.0,S,16.0,bar,1.0,1,star,4587.0,Rspan.names.short,E11names
1226,83.0,S,16.0,car,2.0,2,,4869.0,Rspan.names.short,E11names
1227,83.0,S,16.0,scar,3.0,,,4155.0,Rspan.names.short,E11names
1228,83.0,S,16.0,star,4.0,,,4447.0,Rspan.names.short,E11names
1229,83.0,S,17.0,bone,0.0,0,stone,5058.0,Rspan.names.short,E11names
1230,83.0,S,17.0,phone,1.0,1,stone,4328.0,Rspan.names.short,E11names
1231,83.0,S,17.0,stone,2.0,2,,4324.0,Rspan.names.short,E11names
1232,83.0,D,18.0,toy,0.0,0,frown,5548.0,Rspan.names.short,E11names
1233,83.0,D,18.0,wreck,1.0,1,,5087.0,Rspan.names.short,E11names
1234,83.0,D,18.0,frown,2.0,,,4636.0,Rspan.names.short,E11names
1235,83.0,D,19.0,spice,0.0,0,spice,5849.0,Rspan.names.short,E11names
1236,83.0,D,19.0,heat,1.0,1,heat,5080.0,Rspan.names.short,E11names
1237,83.0,D,19.0,shape,2.0,2,guest,4654.0,Rspan.names.short,E11names
1238,83.0,D,19.0,pear,3.0,3,,4796.0,Rspan.names.short,E11names
1239,83.0,D,19.0,guest,4.0,,,5246.0,Rspan.names.short,E11names
1240,83.0,S,20.0,pie,0.0,0,sky,5718.0,Rspan.names.short,E11names
1241,83.0,S,20.0,fly,1.0,1,eye,5120.0,Rspan.names.short,E11names
1242,83.0,S,20.0,tie,2.0,2,,4620.0,Rspan.names.short,E11names
1243,83.0,S,20.0,sky,3.0,,,4437.0,Rspan.names.short,E11names
1244,83.0,S,20.0,eye,4.0,,,5829.0,Rspan.names.short,E11names
1245,83.0,D,21.0,mare,0.0,0,brain,4902.0,Rspan.names.short,E11names
1246,83.0,D,21.0,bell,1.0,1,beef,4331.0,Rspan.names.short,E11names
1247,83.0,D,21.0,brain,2.0,2,,4951.0,Rspan.names.short,E11names
1248,83.0,D,21.0,beef,3.0,,,12299.0,Rspan.names.short,E11names
1249,83.0,D,22.0,deck,0.0,0,rat,4822.0,Rspan.names.short,E11names
1250,83.0,D,22.0,slice,1.0,1,,4038.0,Rspan.names.short,E11names
1251,83.0,D,22.0,rat,2.0,,,4190.0,Rspan.names.short,E11names
1252,83.0,S,23.0,blouse,0.0,0,house,4777.0,Rspan.names.short,E11names
1253,83.0,S,23.0,house,1.0,1,mouse,5428.0,Rspan.names.short,E11names
1254,83.0,S,23.0,mouse,2.0,2,,4147.0,Rspan.names.short,E11names
1255,83.0,S,24.0,mail,0.0,0,wail,4589.0,Rspan.names.short,E11names
1256,83.0,S,24.0,sail,1.0,1,jail,4287.0,Rspan.names.short,E11names
1257,83.0,S,24.0,trail,2.0,2,,4501.0,Rspan.names.short,E11names
1258,83.0,S,24.0,wail,3.0,,,4522.0,Rspan.names.short,E11names
1259,83.0,S,24.0,tail,4.0,,,4919.0,Rspan.names.short,E11names
1260,83.0,S,24.0,jail,5.0,,,4836.0,Rspan.names.short,E11names
1261,83.0,D,25.0,shell,0.0,0,ground,4761.0,Rspan.names.short,E11names
1262,83.0,D,25.0,tree,1.0,1,,3917.0,Rspan.names.short,E11names
1263,83.0,D,25.0,bowl,2.0,,,4618.0,Rspan.names.short,E11names
1264,83.0,D,25.0,broom,3.0,,,4179.0,Rspan.names.short,E11names
1265,83.0,D,25.0,test,4.0,,,4302.0,Rspan.names.short,E11names
1266,83.0,D,25.0,ground,5.0,,,6011.0,Rspan.names.short,E11names
1267,83.0,D,26.0,beard,0.0,0,card,4420.0,Rspan.names.short,E11names
1268,83.0,D,26.0,hill,1.0,1,line,4380.0,Rspan.names.short,E11names
1269,83.0,D,26.0,dirt,2.0,2,,6127.0,Rspan.names.short,E11names
1270,83.0,D,26.0,card,3.0,,,4787.0,Rspan.names.short,E11names
1271,83.0,D,26.0,line,4.0,,,4701.0,Rspan.names.short,E11names
1272,83.0,S,27.0,band,0.0,0,band,4935.0,Rspan.names.short,E11names
1273,83.0,S,27.0,land,1.0,1,stand,5290.0,Rspan.names.short,E11names
1274,83.0,S,27.0,stand,2.0,2,,5160.0,Rspan.names.short,E11names
1275,83.0,S,27.0,hand,3.0,,,5129.0,Rspan.names.short,E11names
1276,84.0,P,0.0,hood,0.0,0,hood,6414.0,Rspan.names.short,E11names
1277,84.0,P,0.0,wood,1.0,1,wood,5148.0,Rspan.names.short,E11names
1278,84.0,P,1.0,earth,0.0,0,earth,5226.0,Rspan.names.short,E11names
1279,84.0,P,1.0,peach,1.0,1,peach,4417.0,Rspan.names.short,E11names
1280,84.0,P,2.0,bath,0.0,0,bath,4844.0,Rspan.names.short,E11names
1281,84.0,P,2.0,dawn,1.0,1,dawn,4500.0,Rspan.names.short,E11names
1282,84.0,P,3.0,farm,0.0,0,farm,4990.0,Rspan.names.short,E11names
1283,84.0,P,3.0,arm,1.0,1,arm,4199.0,Rspan.names.short,E11names
1284,84.0,S,4.0,cream,0.0,0,cream,4576.0,Rspan.names.short,E11names
1285,84.0,S,4.0,team,1.0,1,team,4954.0,Rspan.names.short,E11names
1286,84.0,S,4.0,steam,2.0,2,steam,4660.0,Rspan.names.short,E11names
1287,84.0,S,5.0,king,0.0,0,king,4805.0,Rspan.names.short,E11names
1288,84.0,S,5.0,ring,1.0,1,ring,4421.0,Rspan.names.short,E11names
1289,84.0,S,5.0,spring,2.0,2,sting,5446.0,Rspan.names.short,E11names
1290,84.0,S,5.0,string,3.0,3,,5982.0,Rspan.names.short,E11names
1291,84.0,S,5.0,wing,4.0,4,string,5991.0,Rspan.names.short,E11names
1292,84.0,S,6.0,bread,0.0,0,bread,4771.0,Rspan.names.short,E11names
1293,84.0,S,6.0,head,1.0,1,head,4918.0,Rspan.names.short,E11names
1294,84.0,S,6.0,thread,2.0,2,thread,6315.0,Rspan.names.short,E11names
1295,84.0,S,6.0,bed,3.0,3,bed,5535.0,Rspan.names.short,E11names
1296,84.0,D,7.0,neck,0.0,0,neck,4781.0,Rspan.names.short,E11names
1297,84.0,D,7.0,town,1.0,1,town,5047.0,Rspan.names.short,E11names
1298,84.0,D,7.0,hat,2.0,2,hat,6902.0,Rspan.names.short,E11names
1299,84.0,D,7.0,street,3.0,3,street,6040.0,Rspan.names.short,E11names
1300,84.0,D,8.0,rice,0.0,0,rice,4294.0,Rspan.names.short,E11names
1301,84.0,D,8.0,cat,1.0,1,cat,4923.0,Rspan.names.short,E11names
1302,84.0,D,8.0,trash,2.0,2,trash,5448.0,Rspan.names.short,E11names
1303,84.0,S,9.0,doll,0.0,0,doll,4509.0,Rspan.names.short,E11names
1304,84.0,S,9.0,ball,1.0,1,ball,4370.0,Rspan.names.short,E11names
1305,84.0,S,9.0,shawl,2.0,2,shawl,5236.0,Rspan.names.short,E11names
1306,84.0,S,9.0,hall,3.0,3,hawl,7908.0,Rspan.names.short,E11names
1307,84.0,S,9.0,brawl,4.0,4,brawl,9191.0,Rspan.names.short,E11names
1308,84.0,S,9.0,wall,5.0,,,8956.0,Rspan.names.short,E11names
1309,84.0,D,10.0,coin,0.0,0,coin,6538.0,Rspan.names.short,E11names
1310,84.0,D,10.0,film,1.0,1,film,6453.0,Rspan.names.short,E11names
1311,84.0,D,10.0,leaf,2.0,2,,5754.0,Rspan.names.short,E11names
1312,84.0,D,10.0,train,3.0,3,,6157.0,Rspan.names.short,E11names
1313,84.0,D,10.0,map,4.0,4,,5926.0,Rspan.names.short,E11names
1314,84.0,D,10.0,art,5.0,5,art,6097.0,Rspan.names.short,E11names
1315,84.0,D,11.0,path,0.0,0,path,5268.0,Rspan.names.short,E11names
1316,84.0,D,11.0,nest,1.0,1,nest,5386.0,Rspan.names.short,E11names
1317,84.0,D,11.0,square,2.0,2,square,5498.0,Rspan.names.short,E11names
1318,84.0,D,11.0,wood,3.0,3,wood,7336.0,Rspan.names.short,E11names
1319,84.0,D,11.0,beach,4.0,4,beach,5257.0,Rspan.names.short,E11names
1320,84.0,D,12.0,toy,0.0,0,toy,5586.0,Rspan.names.short,E11names
1321,84.0,D,12.0,wreck,1.0,1,wreck,5572.0,Rspan.names.short,E11names
1322,84.0,D,12.0,frown,2.0,2,frown,5221.0,Rspan.names.short,E11names
1323,84.0,D,13.0,spice,0.0,0,spice,4363.0,Rspan.names.short,E11names
1324,84.0,D,13.0,heat,1.0,1,heat,4373.0,Rspan.names.short,E11names
1325,84.0,D,13.0,shape,2.0,2,pear,3951.0,Rspan.names.short,E11names
1326,84.0,D,13.0,pear,3.0,3,shape,5084.0,Rspan.names.short,E11names
1327,84.0,D,13.0,guest,4.0,4,guest,4785.0,Rspan.names.short,E11names
1328,84.0,S,14.0,boot,0.0,0,boot,4575.0,Rspan.names.short,E11names
1329,84.0,S,14.0,suit,1.0,1,suit,4410.0,Rspan.names.short,E11names
1330,84.0,S,14.0,flute,2.0,2,toot,4275.0,Rspan.names.short,E11names
1331,84.0,S,14.0,loot,3.0,3,,4826.0,Rspan.names.short,E11names
1332,84.0,S,14.0,root,4.0,4,,6953.0,Rspan.names.short,E11names
1333,84.0,S,14.0,brute,5.0,5,brute,4500.0,Rspan.names.short,E11names
1334,84.0,S,15.0,blouse,0.0,0,blouse,4529.0,Rspan.names.short,E11names
1335,84.0,S,15.0,house,1.0,1,house,4462.0,Rspan.names.short,E11names
1336,84.0,S,15.0,mouse,2.0,2,mouse,5404.0,Rspan.names.short,E11names
1337,84.0,D,16.0,chest,0.0,0,chest,4460.0,Rspan.names.short,E11names
1338,84.0,D,16.0,lane,1.0,1,lane,4036.0,Rspan.names.short,E11names
1339,84.0,D,16.0,hair,2.0,2,hair,4285.0,Rspan.names.short,E11names
1340,84.0,D,16.0,crown,3.0,3,crown,6211.0,Rspan.names.short,E11names
1341,84.0,S,17.0,deer,0.0,0,sphere,4399.0,Rspan.names.short,E11names
1342,84.0,S,17.0,sphere,1.0,1,,4143.0,Rspan.names.short,E11names
1343,84.0,S,17.0,ear,2.0,2,ear,4348.0,Rspan.names.short,E11names
1344,84.0,S,17.0,tear,3.0,3,tear,6783.0,Rspan.names.short,E11names
1345,84.0,D,18.0,ant,0.0,0,ant,4232.0,Rspan.names.short,E11names
1346,84.0,D,18.0,air,1.0,1,air,4281.0,Rspan.names.short,E11names
1347,84.0,D,18.0,ink,2.0,2,ink,5160.0,Rspan.names.short,E11names
1348,84.0,D,18.0,cloud,3.0,3,cloud,4698.0,Rspan.names.short,E11names
1349,84.0,D,18.0,seat,4.0,4,,4759.0,Rspan.names.short,E11names
1350,84.0,D,18.0,breath,5.0,5,seat,4851.0,Rspan.names.short,E11names
1351,84.0,S,19.0,jar,0.0,0,jar,4644.0,Rspan.names.short,E11names
1352,84.0,S,19.0,bar,1.0,1,bar,4932.0,Rspan.names.short,E11names
1353,84.0,S,19.0,car,2.0,2,car,5064.0,Rspan.names.short,E11names
1354,84.0,S,19.0,scar,3.0,3,scar,6015.0,Rspan.names.short,E11names
1355,84.0,S,19.0,star,4.0,4,star,5399.0,Rspan.names.short,E11names
1356,84.0,S,20.0,mail,0.0,0,mail,4830.0,Rspan.names.short,E11names
1357,84.0,S,20.0,sail,1.0,1,sail,3815.0,Rspan.names.short,E11names
1358,84.0,S,20.0,trail,2.0,2,trail,6161.0,Rspan.names.short,E11names
1359,84.0,S,20.0,wail,3.0,3,wail,6554.0,Rspan.names.short,E11names
1360,84.0,S,20.0,tail,4.0,4,jail,5524.0,Rspan.names.short,E11names
1361,84.0,S,20.0,jail,5.0,,,5144.0,Rspan.names.short,E11names
1362,84.0,D,21.0,deck,0.0,0,deck,4605.0,Rspan.names.short,E11names
1363,84.0,D,21.0,slice,1.0,1,slice,4551.0,Rspan.names.short,E11names
1364,84.0,D,21.0,rat,2.0,2,rat,6367.0,Rspan.names.short,E11names
1365,84.0,D,22.0,beard,0.0,0,beard,3683.0,Rspan.names.short,E11names
1366,84.0,D,22.0,hill,1.0,1,hill,4371.0,Rspan.names.short,E11names
1367,84.0,D,22.0,dirt,2.0,2,dirt,5142.0,Rspan.names.short,E11names
1368,84.0,D,22.0,card,3.0,3,card,5217.0,Rspan.names.short,E11names
1369,84.0,D,22.0,line,4.0,4,cross,5497.0,Rspan.names.short,E11names
1370,84.0,D,23.0,shell,0.0,0,shell,4943.0,Rspan.names.short,E11names
1371,84.0,D,23.0,tree,1.0,1,bowl,4723.0,Rspan.names.short,E11names
1372,84.0,D,23.0,bowl,2.0,2,broom,4478.0,Rspan.names.short,E11names
1373,84.0,D,23.0,broom,3.0,3,test,6462.0,Rspan.names.short,E11names
1374,84.0,D,23.0,test,4.0,4,ground,5554.0,Rspan.names.short,E11names
1375,84.0,D,23.0,ground,5.0,,,6005.0,Rspan.names.short,E11names
1376,84.0,D,24.0,mare,0.0,0,mare,6477.0,Rspan.names.short,E11names
1377,84.0,D,24.0,bell,1.0,1,,7009.0,Rspan.names.short,E11names
1378,84.0,D,24.0,brain,2.0,2,brain,4249.0,Rspan.names.short,E11names
1379,84.0,D,24.0,beef,3.0,3,beef,6425.0,Rspan.names.short,E11names
1380,84.0,S,25.0,bone,0.0,0,bone,4244.0,Rspan.names.short,E11names
1381,84.0,S,25.0,phone,1.0,1,phone,4331.0,Rspan.names.short,E11names
1382,84.0,S,25.0,stone,2.0,2,stone,5744.0,Rspan.names.short,E11names
1383,84.0,S,26.0,pie,0.0,0,pie,4857.0,Rspan.names.short,E11names
1384,84.0,S,26.0,fly,1.0,1,fly,4479.0,Rspan.names.short,E11names
1385,84.0,S,26.0,tie,2.0,2,,4846.0,Rspan.names.short,E11names
1386,84.0,S,26.0,sky,3.0,3,sky,5071.0,Rspan.names.short,E11names
1387,84.0,S,26.0,eye,4.0,4,eye,5469.0,Rspan.names.short,E11names
1388,84.0,S,27.0,band,0.0,0,band,4599.0,Rspan.names.short,E11names
1389,84.0,S,27.0,land,1.0,1,land,5072.0,Rspan.names.short,E11names
1390,84.0,S,27.0,stand,2.0,2,stand,5622.0,Rspan.names.short,E11names
1391,84.0,S,27.0,hand,3.0,3,hand,8446.0,Rspan.names.short,E11names
1392,85.0,P,0.0,farm,0.0,0,farm,5846.0,Rspan.names.short,E11names
1393,85.0,P,0.0,arm,1.0,1,arm,5997.0,Rspan.names.short,E11names
1394,85.0,P,1.0,earth,0.0,0,earth,5393.0,Rspan.names.short,E11names
1395,85.0,P,1.0,peach,1.0,1,peach,4978.0,Rspan.names.short,E11names
1396,85.0,P,2.0,hood,0.0,0,hood,5245.0,Rspan.names.short,E11names
1397,85.0,P,2.0,wood,1.0,1,wood,4925.0,Rspan.names.short,E11names
1398,85.0,P,3.0,bath,0.0,0,bath,5857.0,Rspan.names.short,E11names
1399,85.0,P,3.0,dawn,1.0,1,dawn,4510.0,Rspan.names.short,E11names
1400,85.0,D,4.0,path,0.0,0,path,5178.0,Rspan.names.short,E11names
1401,85.0,D,4.0,nest,1.0,1,,4756.0,Rspan.names.short,E11names
1402,85.0,D,4.0,square,2.0,2,earth,4503.0,Rspan.names.short,E11names
1403,85.0,D,4.0,wood,3.0,3,square,5181.0,Rspan.names.short,E11names
1404,85.0,D,4.0,beach,4.0,4,hood,4487.0,Rspan.names.short,E11names
1405,85.0,D,5.0,coin,0.0,0,coin,5612.0,Rspan.names.short,E11names
1406,85.0,D,5.0,film,1.0,1,film,4534.0,Rspan.names.short,E11names
1407,85.0,D,5.0,leaf,2.0,2,train,4218.0,Rspan.names.short,E11names
1408,85.0,D,5.0,train,3.0,3,,5083.0,Rspan.names.short,E11names
1409,85.0,D,5.0,map,4.0,4,art,5408.0,Rspan.names.short,E11names
1410,85.0,D,5.0,art,5.0,,,4945.0,Rspan.names.short,E11names
1411,85.0,S,6.0,bread,0.0,0,bread,5967.0,Rspan.names.short,E11names
1412,85.0,S,6.0,head,1.0,1,head,5264.0,Rspan.names.short,E11names
1413,85.0,S,6.0,thread,2.0,2,,4647.0,Rspan.names.short,E11names
1414,85.0,S,6.0,bed,3.0,3,bed,5062.0,Rspan.names.short,E11names
1415,85.0,S,7.0,king,0.0,0,king,5296.0,Rspan.names.short,E11names
1416,85.0,S,7.0,ring,1.0,1,ring,4590.0,Rspan.names.short,E11names
1417,85.0,S,7.0,spring,2.0,2,spring,4672.0,Rspan.names.short,E11names
1418,85.0,S,7.0,string,3.0,3,string,5446.0,Rspan.names.short,E11names
1419,85.0,S,7.0,wing,4.0,4,wing,4797.0,Rspan.names.short,E11names
1420,85.0,S,8.0,cream,0.0,0,cream,4748.0,Rspan.names.short,E11names
1421,85.0,S,8.0,team,1.0,1,,4231.0,Rspan.names.short,E11names
1422,85.0,S,8.0,steam,2.0,2,team,6632.0,Rspan.names.short,E11names
1423,85.0,D,9.0,neck,0.0,0,,5178.0,Rspan.names.short,E11names
1424,85.0,D,9.0,town,1.0,1,,5061.0,Rspan.names.short,E11names
1425,85.0,D,9.0,hat,2.0,2,hat,4755.0,Rspan.names.short,E11names
1426,85.0,D,9.0,street,3.0,3,street,4279.0,Rspan.names.short,E11names
1427,85.0,S,10.0,doll,0.0,0,bell,5671.0,Rspan.names.short,E11names
1428,85.0,S,10.0,ball,1.0,1,ball,5701.0,Rspan.names.short,E11names
1429,85.0,S,10.0,shawl,2.0,2,shawl,6129.0,Rspan.names.short,E11names
1430,85.0,S,10.0,hall,3.0,3,hall,5324.0,Rspan.names.short,E11names
1431,85.0,S,10.0,brawl,4.0,4,wall,5040.0,Rspan.names.short,E11names
1432,85.0,S,10.0,wall,5.0,,,6528.0,Rspan.names.short,E11names
1433,85.0,D,11.0,rice,0.0,0,rice,5905.0,Rspan.names.short,E11names
1434,85.0,D,11.0,cat,1.0,1,cat,4965.0,Rspan.names.short,E11names
1435,85.0,D,11.0,trash,2.0,2,trash,4313.0,Rspan.names.short,E11names
1436,85.0,S,12.0,deer,0.0,0,deer,6105.0,Rspan.names.short,E11names
1437,85.0,S,12.0,sphere,1.0,1,sphere,4709.0,Rspan.names.short,E11names
1438,85.0,S,12.0,ear,2.0,2,ear,5146.0,Rspan.names.short,E11names
1439,85.0,S,12.0,tear,3.0,3,tear,4894.0,Rspan.names.short,E11names
1440,85.0,S,13.0,boot,0.0,0,boot,4967.0,Rspan.names.short,E11names
1441,85.0,S,13.0,suit,1.0,1,,4920.0,Rspan.names.short,E11names
1442,85.0,S,13.0,flute,2.0,2,flute,5013.0,Rspan.names.short,E11names
1443,85.0,S,13.0,loot,3.0,3,loot,4790.0,Rspan.names.short,E11names
1444,85.0,S,13.0,root,4.0,4,root,5607.0,Rspan.names.short,E11names
1445,85.0,S,13.0,brute,5.0,5,brute,4808.0,Rspan.names.short,E11names
1446,85.0,D,14.0,chest,0.0,0,chest,5286.0,Rspan.names.short,E11names
1447,85.0,D,14.0,lane,1.0,1,lane,4827.0,Rspan.names.short,E11names
1448,85.0,D,14.0,hair,2.0,2,hair,4972.0,Rspan.names.short,E11names
1449,85.0,D,14.0,crown,3.0,3,crown,4702.0,Rspan.names.short,E11names
1450,85.0,D,15.0,spice,0.0,0,,5180.0,Rspan.names.short,E11names
1451,85.0,D,15.0,heat,1.0,1,,5398.0,Rspan.names.short,E11names
1452,85.0,D,15.0,shape,2.0,2,shape,5431.0,Rspan.names.short,E11names
1453,85.0,D,15.0,pear,3.0,3,pear,5038.0,Rspan.names.short,E11names
1454,85.0,D,15.0,guest,4.0,4,guest,4926.0,Rspan.names.short,E11names
1455,85.0,D,16.0,ant,0.0,0,ant,6547.0,Rspan.names.short,E11names
1456,85.0,D,16.0,air,1.0,1,air,4613.0,Rspan.names.short,E11names
1457,85.0,D,16.0,ink,2.0,2,ink,5079.0,Rspan.names.short,E11names
1458,85.0,D,16.0,cloud,3.0,3,cloud,5901.0,Rspan.names.short,E11names
1459,85.0,D,16.0,seat,4.0,4,breath,5145.0,Rspan.names.short,E11names
1460,85.0,D,16.0,breath,5.0,5,seat,5196.0,Rspan.names.short,E11names
1461,85.0,S,17.0,jar,0.0,0,jar,6498.0,Rspan.names.short,E11names
1462,85.0,S,17.0,bar,1.0,1,,4654.0,Rspan.names.short,E11names
1463,85.0,S,17.0,car,2.0,2,car,4806.0,Rspan.names.short,E11names
1464,85.0,S,17.0,scar,3.0,3,scar,5471.0,Rspan.names.short,E11names
1465,85.0,S,17.0,star,4.0,4,star,5245.0,Rspan.names.short,E11names
1466,85.0,D,18.0,toy,0.0,0,toy,5349.0,Rspan.names.short,E11names
1467,85.0,D,18.0,wreck,1.0,1,wreck,6191.0,Rspan.names.short,E11names
1468,85.0,D,18.0,frown,2.0,2,frown,5552.0,Rspan.names.short,E11names
1469,85.0,S,19.0,blouse,0.0,0,blouse,5408.0,Rspan.names.short,E11names
1470,85.0,S,19.0,house,1.0,1,house,5137.0,Rspan.names.short,E11names
1471,85.0,S,19.0,mouse,2.0,2,mouse,4788.0,Rspan.names.short,E11names
1472,85.0,D,20.0,mare,0.0,0,mare,4549.0,Rspan.names.short,E11names
1473,85.0,D,20.0,bell,1.0,1,,4632.0,Rspan.names.short,E11names
1474,85.0,D,20.0,brain,2.0,2,brain,4760.0,Rspan.names.short,E11names
1475,85.0,D,20.0,beef,3.0,3,beef,5612.0,Rspan.names.short,E11names
1476,85.0,S,21.0,mail,0.0,0,mail,4359.0,Rspan.names.short,E11names
1477,85.0,S,21.0,sail,1.0,1,wail,4547.0,Rspan.names.short,E11names
1478,85.0,S,21.0,trail,2.0,2,sail,4134.0,Rspan.names.short,E11names
1479,85.0,S,21.0,wail,3.0,3,trail,4436.0,Rspan.names.short,E11names
1480,85.0,S,21.0,tail,4.0,4,hail,4155.0,Rspan.names.short,E11names
1481,85.0,S,21.0,jail,5.0,,,5302.0,Rspan.names.short,E11names
1482,85.0,D,22.0,deck,0.0,0,deck,5629.0,Rspan.names.short,E11names
1483,85.0,D,22.0,slice,1.0,1,slice,4397.0,Rspan.names.short,E11names
1484,85.0,D,22.0,rat,2.0,2,rat,5454.0,Rspan.names.short,E11names
1485,85.0,D,23.0,shell,0.0,0,shell,4933.0,Rspan.names.short,E11names
1486,85.0,D,23.0,tree,1.0,1,tree,4361.0,Rspan.names.short,E11names
1487,85.0,D,23.0,bowl,2.0,2,bowl,4700.0,Rspan.names.short,E11names
1488,85.0,D,23.0,broom,3.0,3,broom,5761.0,Rspan.names.short,E11names
1489,85.0,D,23.0,test,4.0,4,test,5156.0,Rspan.names.short,E11names
1490,85.0,D,23.0,ground,5.0,5,ground,4830.0,Rspan.names.short,E11names
1491,85.0,S,24.0,bone,0.0,0,bone,5693.0,Rspan.names.short,E11names
1492,85.0,S,24.0,phone,1.0,1,phone,4234.0,Rspan.names.short,E11names
1493,85.0,S,24.0,stone,2.0,2,stone,5010.0,Rspan.names.short,E11names
1494,85.0,D,25.0,beard,0.0,0,beard,5624.0,Rspan.names.short,E11names
1495,85.0,D,25.0,hill,1.0,1,hill,4608.0,Rspan.names.short,E11names
1496,85.0,D,25.0,dirt,2.0,2,dirt,5497.0,Rspan.names.short,E11names
1497,85.0,D,25.0,card,3.0,3,card,4598.0,Rspan.names.short,E11names
1498,85.0,D,25.0,line,4.0,,,4679.0,Rspan.names.short,E11names
1499,85.0,S,26.0,band,0.0,0,band,4811.0,Rspan.names.short,E11names
1500,85.0,S,26.0,land,1.0,1,land,4748.0,Rspan.names.short,E11names
1501,85.0,S,26.0,stand,2.0,2,stand,4431.0,Rspan.names.short,E11names
1502,85.0,S,26.0,hand,3.0,3,hand,5511.0,Rspan.names.short,E11names
1503,85.0,S,27.0,pie,0.0,0,pie,4224.0,Rspan.names.short,E11names
1504,85.0,S,27.0,fly,1.0,1,fly,4401.0,Rspan.names.short,E11names
1505,85.0,S,27.0,tie,2.0,2,tie,4811.0,Rspan.names.short,E11names
1506,85.0,S,27.0,sky,3.0,3,sky,5460.0,Rspan.names.short,E11names
1507,85.0,S,27.0,eye,4.0,4,eye,5194.0,Rspan.names.short,E11names
1508,86.0,P,0.0,bath,0.0,0,bath,7618.0,Rspan.names.short,E11names
1509,86.0,P,0.0,dawn,1.0,1,dawn,10384.0,Rspan.names.short,E11names
1510,86.0,P,1.0,farm,0.0,0,farm,6429.0,Rspan.names.short,E11names
1511,86.0,P,1.0,arm,1.0,1,arm,7036.0,Rspan.names.short,E11names
1512,86.0,P,2.0,hood,0.0,0,hood,7380.0,Rspan.names.short,E11names
1513,86.0,P,2.0,wood,1.0,1,wood,6597.0,Rspan.names.short,E11names
1514,86.0,P,3.0,earth,0.0,0,earth,6253.0,Rspan.names.short,E11names
