,Subject,trialtype,trialnum,inpos,TBR,outpos,resp,dist_RT,task,folder
0,8.0,P,0.0,0.0,hood,0,hood,,Rspan.long,E2
1,8.0,P,0.0,1.0,wood,1,wood,,Rspan.long,E2
2,8.0,P,1.0,0.0,bath,0,bath,,Rspan.long,E2
3,8.0,P,1.0,1.0,dawn,1,dawn,,Rspan.long,E2
4,8.0,P,2.0,0.0,earth,0,earth,,Rspan.long,E2
5,8.0,P,2.0,1.0,peach,1,peach,,Rspan.long,E2
6,8.0,P,3.0,0.0,farm,0,farm,,Rspan.long,E2
7,8.0,P,3.0,1.0,arm,1,arm,,Rspan.long,E2
8,8.0,S,4.0,0.0,pie,0,pie,4175.0,Rspan.long,E2
9,8.0,S,4.0,1.0,fly,1,,4032.0,Rspan.long,E2
10,8.0,S,4.0,2.0,tie,2,sky,3472.0,Rspan.long,E2
11,8.0,S,4.0,3.0,sky,3,,4208.0,Rspan.long,E2
12,8.0,S,4.0,4.0,eye,4,eye,4360.0,Rspan.long,E2
13,8.0,S,5.0,0.0,boot,0,boot,4169.0,Rspan.long,E2
14,8.0,S,5.0,1.0,suit,1,suit,4016.0,Rspan.long,E2
15,8.0,S,5.0,2.0,flute,2,flute,4208.0,Rspan.long,E2
16,8.0,S,5.0,3.0,loot,3,,3816.0,Rspan.long,E2
17,8.0,S,5.0,4.0,root,4,loot,3808.0,Rspan.long,E2
18,8.0,S,5.0,5.0,brute,5,,3663.0,Rspan.long,E2
19,8.0,S,6.0,0.0,band,0,band,3849.0,Rspan.long,E2
20,8.0,S,6.0,1.0,land,1,land,3656.0,Rspan.long,E2
21,8.0,S,6.0,2.0,stand,2,stand,4288.0,Rspan.long,E2
22,8.0,S,6.0,3.0,hand,3,hand,3760.0,Rspan.long,E2
23,8.0,S,7.0,0.0,jar,0,bar,4296.0,Rspan.long,E2
24,8.0,S,7.0,1.0,bar,1,car,3984.0,Rspan.long,E2
25,8.0,S,7.0,2.0,car,2,,3248.0,Rspan.long,E2
26,8.0,S,7.0,3.0,scar,3,star,4056.0,Rspan.long,E2
27,8.0,S,7.0,4.0,star,,,4176.0,Rspan.long,E2
28,8.0,S,8.0,0.0,cream,0,cream,3833.0,Rspan.long,E2
29,8.0,S,8.0,1.0,team,1,,4360.0,Rspan.long,E2
30,8.0,S,8.0,2.0,steam,2,steam,4160.0,Rspan.long,E2
31,8.0,S,9.0,0.0,bread,0,bread,4081.0,Rspan.long,E2
32,8.0,S,9.0,1.0,head,1,head,4232.0,Rspan.long,E2
33,8.0,S,9.0,2.0,thread,2,,3656.0,Rspan.long,E2
34,8.0,S,9.0,3.0,bed,3,bed,4496.0,Rspan.long,E2
35,8.0,S,10.0,0.0,king,0,king,4097.0,Rspan.long,E2
36,8.0,S,10.0,1.0,ring,1,ring,3504.0,Rspan.long,E2
37,8.0,S,10.0,2.0,spring,2,,4328.0,Rspan.long,E2
38,8.0,S,10.0,3.0,string,3,string,4072.0,Rspan.long,E2
39,8.0,S,10.0,4.0,wing,4,,3944.0,Rspan.long,E2
40,8.0,S,11.0,0.0,deer,0,deer,3233.0,Rspan.long,E2
41,8.0,S,11.0,1.0,sphere,1,sphere,4288.0,Rspan.long,E2
42,8.0,S,11.0,2.0,ear,2,tear,4304.0,Rspan.long,E2
43,8.0,S,11.0,3.0,tear,3,ear,4448.0,Rspan.long,E2
44,8.0,S,12.0,0.0,blouse,0,blouse,3457.0,Rspan.long,E2
45,8.0,S,12.0,1.0,house,1,house,3208.0,Rspan.long,E2
46,8.0,S,12.0,2.0,mouse,2,mouse,4400.0,Rspan.long,E2
47,8.0,S,13.0,0.0,bone,0,bone,4569.0,Rspan.long,E2
48,8.0,S,13.0,1.0,phone,1,phone,3904.0,Rspan.long,E2
49,8.0,S,13.0,2.0,stone,2,stone,3832.0,Rspan.long,E2
50,8.0,S,14.0,0.0,doll,0,doll,4064.0,Rspan.long,E2
51,8.0,S,14.0,1.0,ball,1,ball,3919.0,Rspan.long,E2
52,8.0,S,14.0,2.0,shawl,2,shawl,3496.0,Rspan.long,E2
53,8.0,S,14.0,3.0,hall,3,brawl,3976.0,Rspan.long,E2
54,8.0,S,14.0,4.0,brawl,4,wall,4440.0,Rspan.long,E2
55,8.0,S,14.0,5.0,wall,,,3488.0,Rspan.long,E2
56,8.0,S,15.0,0.0,mail,0,mail,4049.0,Rspan.long,E2
57,8.0,S,15.0,1.0,sail,1,sail,3744.0,Rspan.long,E2
58,8.0,S,15.0,2.0,trail,2,trail,3456.0,Rspan.long,E2
59,8.0,S,15.0,3.0,wail,3,wail,4064.0,Rspan.long,E2
60,8.0,S,15.0,4.0,tail,4,,4360.0,Rspan.long,E2
61,8.0,S,15.0,5.0,jail,5,,4008.0,Rspan.long,E2
62,8.0,D,16.0,0.0,toy,0,toy,4256.0,Rspan.long,E2
63,8.0,D,16.0,1.0,wreck,1,wreck,4776.0,Rspan.long,E2
64,8.0,D,16.0,2.0,frown,2,frown,5152.0,Rspan.long,E2
65,8.0,D,17.0,0.0,ant,0,ant,4433.0,Rspan.long,E2
66,8.0,D,17.0,1.0,air,1,air,3792.0,Rspan.long,E2
67,8.0,D,17.0,2.0,ink,2,,4144.0,Rspan.long,E2
68,8.0,D,17.0,3.0,cloud,3,,4792.0,Rspan.long,E2
69,8.0,D,17.0,4.0,seat,4,,4528.0,Rspan.long,E2
70,8.0,D,17.0,5.0,breath,5,,4584.0,Rspan.long,E2
71,8.0,D,18.0,0.0,chest,0,chest,5801.0,Rspan.long,E2
72,8.0,D,18.0,1.0,lane,1,,5336.0,Rspan.long,E2
73,8.0,D,18.0,2.0,hair,2,,5135.0,Rspan.long,E2
74,8.0,D,18.0,3.0,crown,3,,4784.0,Rspan.long,E2
75,8.0,D,19.0,0.0,mare,0,mare,4457.0,Rspan.long,E2
76,8.0,D,19.0,1.0,bell,1,bell,4272.0,Rspan.long,E2
77,8.0,D,19.0,2.0,brain,2,brain,4384.0,Rspan.long,E2
78,8.0,D,19.0,3.0,beef,3,beef,4967.0,Rspan.long,E2
79,8.0,D,20.0,0.0,rice,0,rice,5329.0,Rspan.long,E2
80,8.0,D,20.0,1.0,cat,1,cat,4400.0,Rspan.long,E2
81,8.0,D,20.0,2.0,trash,2,trash,4608.0,Rspan.long,E2
82,8.0,D,21.0,0.0,neck,0,neck,4633.0,Rspan.long,E2
83,8.0,D,21.0,1.0,town,1,,3904.0,Rspan.long,E2
84,8.0,D,21.0,2.0,hat,2,hat,4600.0,Rspan.long,E2
85,8.0,D,21.0,3.0,street,3,street,4360.0,Rspan.long,E2
86,8.0,D,22.0,0.0,spice,0,,4673.0,Rspan.long,E2
87,8.0,D,22.0,1.0,heat,1,,4583.0,Rspan.long,E2
88,8.0,D,22.0,2.0,shape,2,,5880.0,Rspan.long,E2
89,8.0,D,22.0,3.0,pear,3,bear,4584.0,Rspan.long,E2
90,8.0,D,22.0,4.0,guest,4,guest,4912.0,Rspan.long,E2
91,8.0,D,23.0,0.0,shell,0,shell,4063.0,Rspan.long,E2
92,8.0,D,23.0,1.0,tree,1,tree,5584.0,Rspan.long,E2
93,8.0,D,23.0,2.0,bowl,2,,4048.0,Rspan.long,E2
94,8.0,D,23.0,3.0,broom,3,test,4408.0,Rspan.long,E2
95,8.0,D,23.0,4.0,test,4,,5399.0,Rspan.long,E2
96,8.0,D,23.0,5.0,ground,5,ground,4488.0,Rspan.long,E2
97,8.0,D,24.0,0.0,beard,0,beard,4137.0,Rspan.long,E2
98,8.0,D,24.0,1.0,hill,1,hill,3680.0,Rspan.long,E2
99,8.0,D,24.0,2.0,dirt,2,dirt,5311.0,Rspan.long,E2
100,8.0,D,24.0,3.0,card,3,card,4808.0,Rspan.long,E2
101,8.0,D,24.0,4.0,line,4,line,4424.0,Rspan.long,E2
102,8.0,D,25.0,0.0,path,0,,4217.0,Rspan.long,E2
103,8.0,D,25.0,1.0,nest,1,,6376.0,Rspan.long,E2
104,8.0,D,25.0,2.0,square,2,square,4384.0,Rspan.long,E2
105,8.0,D,25.0,3.0,wood,3,wood,4488.0,Rspan.long,E2
106,8.0,D,25.0,4.0,beach,4,beach,4464.0,Rspan.long,E2
107,8.0,D,26.0,0.0,deck,0,deck,4568.0,Rspan.long,E2
108,8.0,D,26.0,1.0,slice,1,slice,4728.0,Rspan.long,E2
109,8.0,D,26.0,2.0,rat,2,rat,4911.0,Rspan.long,E2
110,8.0,D,27.0,0.0,coin,0,coin,5385.0,Rspan.long,E2
111,8.0,D,27.0,1.0,film,1,,5200.0,Rspan.long,E2
112,8.0,D,27.0,2.0,leaf,2,,5632.0,Rspan.long,E2
113,8.0,D,27.0,3.0,train,3,map,4904.0,Rspan.long,E2
114,8.0,D,27.0,4.0,map,4,art,4543.0,Rspan.long,E2
115,8.0,D,27.0,5.0,art,,,4488.0,Rspan.long,E2
116,10.0,P,0.0,0.0,bath,0,bath,,Rspan.long,E2
117,10.0,P,0.0,1.0,dawn,1,dawn,,Rspan.long,E2
118,10.0,P,1.0,0.0,farm,0,farm,,Rspan.long,E2
119,10.0,P,1.0,1.0,arm,1,arm,,Rspan.long,E2
120,10.0,P,2.0,0.0,hood,0,hood,,Rspan.long,E2
121,10.0,P,2.0,1.0,wood,1,wood,,Rspan.long,E2
122,10.0,P,3.0,0.0,earth,0,earth,,Rspan.long,E2
123,10.0,P,3.0,1.0,peach,1,peach,,Rspan.long,E2
124,10.0,S,4.0,0.0,blouse,0,blouse,4302.0,Rspan.long,E2
125,10.0,S,4.0,1.0,house,1,house,3295.0,Rspan.long,E2
126,10.0,S,4.0,2.0,mouse,2,mouse,4184.0,Rspan.long,E2
127,10.0,S,5.0,0.0,doll,0,doll,3982.0,Rspan.long,E2
128,10.0,S,5.0,1.0,ball,1,ball,4087.0,Rspan.long,E2
129,10.0,S,5.0,2.0,shawl,2,shawl,4120.0,Rspan.long,E2
130,10.0,S,5.0,3.0,hall,3,hall,4183.0,Rspan.long,E2
131,10.0,S,5.0,4.0,brawl,4,brawl,4566.0,Rspan.long,E2
132,10.0,S,5.0,5.0,wall,5,,3239.0,Rspan.long,E2
133,10.0,S,6.0,0.0,band,0,band,3766.0,Rspan.long,E2
134,10.0,S,6.0,1.0,land,1,hand,3992.0,Rspan.long,E2
135,10.0,S,6.0,2.0,stand,2,,6448.0,Rspan.long,E2
136,10.0,S,6.0,3.0,hand,,,4168.0,Rspan.long,E2
137,10.0,S,7.0,0.0,jar,0,jar,3918.0,Rspan.long,E2
138,10.0,S,7.0,1.0,bar,1,bar,4655.0,Rspan.long,E2
139,10.0,S,7.0,2.0,car,2,,3343.0,Rspan.long,E2
140,10.0,S,7.0,3.0,scar,3,,4631.0,Rspan.long,E2
141,10.0,S,7.0,4.0,star,4,star,5031.0,Rspan.long,E2
142,10.0,S,8.0,0.0,deer,0,deer,3566.0,Rspan.long,E2
143,10.0,S,8.0,1.0,sphere,1,sphere,4151.0,Rspan.long,E2
144,10.0,S,8.0,2.0,ear,2,ear,3870.0,Rspan.long,E2
145,10.0,S,8.0,3.0,tear,3,,4992.0,Rspan.long,E2
146,10.0,S,9.0,0.0,mail,0,mail,4798.0,Rspan.long,E2
147,10.0,S,9.0,1.0,sail,1,,4064.0,Rspan.long,E2
148,10.0,S,9.0,2.0,trail,2,,3310.0,Rspan.long,E2
149,10.0,S,9.0,3.0,wail,3,jail,5359.0,Rspan.long,E2
150,10.0,S,9.0,4.0,tail,4,,4936.0,Rspan.long,E2
151,10.0,S,9.0,5.0,jail,,,4608.0,Rspan.long,E2
152,10.0,S,10.0,0.0,pie,0,pie,4310.0,Rspan.long,E2
153,10.0,S,10.0,1.0,fly,1,fly,3840.0,Rspan.long,E2
154,10.0,S,10.0,2.0,tie,2,tie,4127.0,Rspan.long,E2
155,10.0,S,10.0,3.0,sky,3,sky,4176.0,Rspan.long,E2
156,10.0,S,10.0,4.0,eye,4,eye,5783.0,Rspan.long,E2
157,10.0,S,11.0,0.0,bone,0,bone,4062.0,Rspan.long,E2
158,10.0,S,11.0,1.0,phone,1,phone,4520.0,Rspan.long,E2
159,10.0,S,11.0,2.0,stone,2,stone,3983.0,Rspan.long,E2
160,10.0,S,12.0,0.0,bread,0,bread,3973.0,Rspan.long,E2
161,10.0,S,12.0,1.0,head,1,,4039.0,Rspan.long,E2
162,10.0,S,12.0,2.0,thread,2,,4239.0,Rspan.long,E2
163,10.0,S,12.0,3.0,bed,3,bed,5704.0,Rspan.long,E2
164,10.0,S,13.0,0.0,cream,0,cream,3422.0,Rspan.long,E2
165,10.0,S,13.0,1.0,team,1,team,5438.0,Rspan.long,E2
166,10.0,S,13.0,2.0,steam,2,steam,4847.0,Rspan.long,E2
167,10.0,S,14.0,0.0,king,0,king,4062.0,Rspan.long,E2
168,10.0,S,14.0,1.0,ring,1,ring,3704.0,Rspan.long,E2
169,10.0,S,14.0,2.0,spring,2,spring,5079.0,Rspan.long,E2
170,10.0,S,14.0,3.0,string,3,string,4863.0,Rspan.long,E2
171,10.0,S,14.0,4.0,wing,4,,5688.0,Rspan.long,E2
172,10.0,S,15.0,0.0,boot,0,boot,3790.0,Rspan.long,E2
173,10.0,S,15.0,1.0,suit,1,,4088.0,Rspan.long,E2
174,10.0,S,15.0,2.0,flute,2,loot,4192.0,Rspan.long,E2
175,10.0,S,15.0,3.0,loot,3,flute,4168.0,Rspan.long,E2
176,10.0,S,15.0,4.0,root,4,,4712.0,Rspan.long,E2
177,10.0,S,15.0,5.0,brute,,,4544.0,Rspan.long,E2
178,10.0,D,16.0,0.0,deck,0,deck,5406.0,Rspan.long,E2
179,10.0,D,16.0,1.0,slice,1,slice,4416.0,Rspan.long,E2
180,10.0,D,16.0,2.0,rat,2,rat,5024.0,Rspan.long,E2
181,10.0,D,17.0,0.0,path,0,,4238.0,Rspan.long,E2
182,10.0,D,17.0,1.0,nest,1,,5488.0,Rspan.long,E2
183,10.0,D,17.0,2.0,square,2,,5720.0,Rspan.long,E2
184,10.0,D,17.0,3.0,wood,3,wood,5854.0,Rspan.long,E2
185,10.0,D,17.0,4.0,beach,4,beach,4599.0,Rspan.long,E2
186,10.0,D,18.0,0.0,toy,0,toy,3733.0,Rspan.long,E2
187,10.0,D,18.0,1.0,wreck,1,wreck,4782.0,Rspan.long,E2
188,10.0,D,18.0,2.0,frown,2,frown,4616.0,Rspan.long,E2
189,10.0,D,19.0,0.0,chest,0,,4415.0,Rspan.long,E2
190,10.0,D,19.0,1.0,lane,1,hair,6328.0,Rspan.long,E2
191,10.0,D,19.0,2.0,hair,2,crown,9256.0,Rspan.long,E2
192,10.0,D,19.0,3.0,crown,,,5176.0,Rspan.long,E2
193,10.0,D,20.0,0.0,spice,0,nest,4150.0,Rspan.long,E2
194,10.0,D,20.0,1.0,heat,1,,4687.0,Rspan.long,E2
195,10.0,D,20.0,2.0,shape,2,,5544.0,Rspan.long,E2
196,10.0,D,20.0,3.0,pear,3,,5600.0,Rspan.long,E2
197,10.0,D,20.0,4.0,guest,4,guest,6080.0,Rspan.long,E2
198,10.0,D,21.0,0.0,neck,0,neck,4966.0,Rspan.long,E2
199,10.0,D,21.0,1.0,town,1,,3752.0,Rspan.long,E2
200,10.0,D,21.0,2.0,hat,2,,4190.0,Rspan.long,E2
201,10.0,D,21.0,3.0,street,3,street,4927.0,Rspan.long,E2
202,10.0,D,22.0,0.0,beard,0,beard,4086.0,Rspan.long,E2
203,10.0,D,22.0,1.0,hill,1,,4303.0,Rspan.long,E2
204,10.0,D,22.0,2.0,dirt,2,,4944.0,Rspan.long,E2
205,10.0,D,22.0,3.0,card,3,line,5376.0,Rspan.long,E2
206,10.0,D,22.0,4.0,line,,,4488.0,Rspan.long,E2
207,10.0,D,23.0,0.0,shell,0,,4166.0,Rspan.long,E2
208,10.0,D,23.0,1.0,tree,1,,5311.0,Rspan.long,E2
209,10.0,D,23.0,2.0,bowl,2,,4544.0,Rspan.long,E2
210,10.0,D,23.0,3.0,broom,3,,6384.0,Rspan.long,E2
211,10.0,D,23.0,4.0,test,4,ground,4936.0,Rspan.long,E2
212,10.0,D,23.0,5.0,ground,,,4800.0,Rspan.long,E2
213,10.0,D,24.0,0.0,ant,0,ant,4206.0,Rspan.long,E2
214,10.0,D,24.0,1.0,air,1,air,5023.0,Rspan.long,E2
215,10.0,D,24.0,2.0,ink,2,ink,4680.0,Rspan.long,E2
216,10.0,D,24.0,3.0,cloud,3,,4720.0,Rspan.long,E2
217,10.0,D,24.0,4.0,seat,4,breath,4576.0,Rspan.long,E2
218,10.0,D,24.0,5.0,breath,,,4559.0,Rspan.long,E2
219,10.0,D,25.0,0.0,coin,0,,4870.0,Rspan.long,E2
220,10.0,D,25.0,1.0,film,1,,5248.0,Rspan.long,E2
221,10.0,D,25.0,2.0,leaf,2,train,5143.0,Rspan.long,E2
222,10.0,D,25.0,3.0,train,3,map,7192.0,Rspan.long,E2
223,10.0,D,25.0,4.0,map,4,art,4784.0,Rspan.long,E2
224,10.0,D,25.0,5.0,art,,,5216.0,Rspan.long,E2
225,10.0,D,26.0,0.0,mare,0,mare,5286.0,Rspan.long,E2
226,10.0,D,26.0,1.0,bell,1,,4520.0,Rspan.long,E2
227,10.0,D,26.0,2.0,brain,2,,7152.0,Rspan.long,E2
228,10.0,D,26.0,3.0,beef,3,beef,6296.0,Rspan.long,E2
229,10.0,D,27.0,0.0,rice,0,,4750.0,Rspan.long,E2
230,10.0,D,27.0,1.0,cat,1,cat,5080.0,Rspan.long,E2
231,10.0,D,27.0,2.0,trash,2,trash,4711.0,Rspan.long,E2
232,12.0,P,0.0,0.0,bath,0,bath,,Rspan.long,E2
233,12.0,P,0.0,1.0,dawn,1,dawn,,Rspan.long,E2
234,12.0,P,1.0,0.0,farm,0,farm,,Rspan.long,E2
235,12.0,P,1.0,1.0,arm,1,arm,,Rspan.long,E2
236,12.0,P,2.0,0.0,hood,0,hood,,Rspan.long,E2
237,12.0,P,2.0,1.0,wood,1,wood,,Rspan.long,E2
238,12.0,P,3.0,0.0,earth,0,wood,,Rspan.long,E2
239,12.0,P,3.0,1.0,peach,1,peach,,Rspan.long,E2
240,12.0,D,4.0,0.0,coin,0,coin,4511.0,Rspan.long,E2
241,12.0,D,4.0,1.0,film,1,arm,4824.0,Rspan.long,E2
242,12.0,D,4.0,2.0,leaf,2,,5536.0,Rspan.long,E2
243,12.0,D,4.0,3.0,train,3,map,5912.0,Rspan.long,E2
244,12.0,D,4.0,4.0,map,4,train,4376.0,Rspan.long,E2
245,12.0,D,4.0,5.0,art,5,art,4184.0,Rspan.long,E2
246,12.0,D,5.0,0.0,toy,0,toy,4505.0,Rspan.long,E2
247,12.0,D,5.0,1.0,wreck,1,wreck,5504.0,Rspan.long,E2
248,12.0,D,5.0,2.0,frown,2,frown,5104.0,Rspan.long,E2
249,12.0,D,6.0,0.0,ant,0,ant,3977.0,Rspan.long,E2
250,12.0,D,6.0,1.0,air,1,farm,4896.0,Rspan.long,E2
251,12.0,D,6.0,2.0,ink,2,,5440.0,Rspan.long,E2
252,12.0,D,6.0,3.0,cloud,3,coin,5160.0,Rspan.long,E2
253,12.0,D,6.0,4.0,seat,4,,5238.0,Rspan.long,E2
254,12.0,D,6.0,5.0,breath,5,breath,4640.0,Rspan.long,E2
255,12.0,D,7.0,0.0,rice,0,,4864.0,Rspan.long,E2
256,12.0,D,7.0,1.0,cat,1,,4111.0,Rspan.long,E2
257,12.0,D,7.0,2.0,trash,2,trash,4807.0,Rspan.long,E2
258,12.0,D,8.0,0.0,mare,0,mare,5401.0,Rspan.long,E2
259,12.0,D,8.0,1.0,bell,1,,3808.0,Rspan.long,E2
260,12.0,D,8.0,2.0,brain,2,,4752.0,Rspan.long,E2
261,12.0,D,8.0,3.0,beef,3,brain,4816.0,Rspan.long,E2
262,12.0,D,9.0,0.0,deck,0,rice,5832.0,Rspan.long,E2
263,12.0,D,9.0,1.0,slice,1,,4520.0,Rspan.long,E2
264,12.0,D,9.0,2.0,rat,2,rat,4680.0,Rspan.long,E2
265,12.0,D,10.0,0.0,path,0,path,6081.0,Rspan.long,E2
266,12.0,D,10.0,1.0,nest,1,,6632.0,Rspan.long,E2
267,12.0,D,10.0,2.0,square,2,deck,5440.0,Rspan.long,E2
268,12.0,D,10.0,3.0,wood,3,beach,4776.0,Rspan.long,E2
269,12.0,D,10.0,4.0,beach,,,5191.0,Rspan.long,E2
270,12.0,D,11.0,0.0,shell,0,,3513.0,Rspan.long,E2
271,12.0,D,11.0,1.0,tree,1,tree,5120.0,Rspan.long,E2
272,12.0,D,11.0,2.0,bowl,2,bowl,4784.0,Rspan.long,E2
273,12.0,D,11.0,3.0,broom,3,,4976.0,Rspan.long,E2
274,12.0,D,11.0,4.0,test,4,wood,4864.0,Rspan.long,E2
275,12.0,D,11.0,5.0,ground,5,ground,4112.0,Rspan.long,E2
276,12.0,D,12.0,0.0,spice,0,bowl,4592.0,Rspan.long,E2
277,12.0,D,12.0,1.0,heat,1,,6575.0,Rspan.long,E2
278,12.0,D,12.0,2.0,shape,2,pear,5416.0,Rspan.long,E2
279,12.0,D,12.0,3.0,pear,3,,5416.0,Rspan.long,E2
280,12.0,D,12.0,4.0,guest,4,guest,5431.0,Rspan.long,E2
281,12.0,D,13.0,0.0,neck,0,neck,5713.0,Rspan.long,E2
282,12.0,D,13.0,1.0,town,1,town,3912.0,Rspan.long,E2
283,12.0,D,13.0,2.0,hat,2,,5808.0,Rspan.long,E2
284,12.0,D,13.0,3.0,street,3,street,4224.0,Rspan.long,E2
285,12.0,D,14.0,0.0,chest,0,chest,4913.0,Rspan.long,E2
286,12.0,D,14.0,1.0,lane,1,,5656.0,Rspan.long,E2
287,12.0,D,14.0,2.0,hair,2,hair,4424.0,Rspan.long,E2
288,12.0,D,14.0,3.0,crown,3,crown,5208.0,Rspan.long,E2
289,12.0,D,15.0,0.0,beard,0,beard,5361.0,Rspan.long,E2
290,12.0,D,15.0,1.0,hill,1,hill,3952.0,Rspan.long,E2
291,12.0,D,15.0,2.0,dirt,2,,5104.0,Rspan.long,E2
292,12.0,D,15.0,3.0,card,3,drill,5640.0,Rspan.long,E2
293,12.0,D,15.0,4.0,line,4,line,3976.0,Rspan.long,E2
294,12.0,S,16.0,0.0,doll,0,doll,3744.0,Rspan.long,E2
295,12.0,S,16.0,1.0,ball,1,hall,5096.0,Rspan.long,E2
296,12.0,S,16.0,2.0,shawl,2,shawl,4576.0,Rspan.long,E2
297,12.0,S,16.0,3.0,hall,3,wall,6904.0,Rspan.long,E2
298,12.0,S,16.0,4.0,brawl,4,hall,4424.0,Rspan.long,E2
299,12.0,S,16.0,5.0,wall,,,3296.0,Rspan.long,E2
300,12.0,S,17.0,0.0,deer,0,deer,3001.0,Rspan.long,E2
301,12.0,S,17.0,1.0,sphere,1,,4768.0,Rspan.long,E2
302,12.0,S,17.0,2.0,ear,2,tear,4696.0,Rspan.long,E2
303,12.0,S,17.0,3.0,tear,3,,5680.0,Rspan.long,E2
304,12.0,S,18.0,0.0,cream,0,cream,3361.0,Rspan.long,E2
305,12.0,S,18.0,1.0,team,1,team,5472.0,Rspan.long,E2
306,12.0,S,18.0,2.0,steam,2,steam,4728.0,Rspan.long,E2
307,12.0,S,19.0,0.0,band,0,band,3585.0,Rspan.long,E2
308,12.0,S,19.0,1.0,land,1,,4520.0,Rspan.long,E2
309,12.0,S,19.0,2.0,stand,2,land,5064.0,Rspan.long,E2
310,12.0,S,19.0,3.0,hand,3,hand,4952.0,Rspan.long,E2
311,12.0,S,20.0,0.0,king,0,king,3761.0,Rspan.long,E2
312,12.0,S,20.0,1.0,ring,1,ring,3616.0,Rspan.long,E2
313,12.0,S,20.0,2.0,spring,2,string,5256.0,Rspan.long,E2
314,12.0,S,20.0,3.0,string,3,,5984.0,Rspan.long,E2
315,12.0,S,20.0,4.0,wing,,,3792.0,Rspan.long,E2
316,12.0,S,21.0,0.0,mail,0,mail,4033.0,Rspan.long,E2
317,12.0,S,21.0,1.0,sail,1,sail,3288.0,Rspan.long,E2
318,12.0,S,21.0,2.0,trail,2,trail,3736.0,Rspan.long,E2
319,12.0,S,21.0,3.0,wail,3,jail,5480.0,Rspan.long,E2
320,12.0,S,21.0,4.0,tail,,,6008.0,Rspan.long,E2
321,12.0,S,21.0,5.0,jail,,,4328.0,Rspan.long,E2
322,12.0,S,22.0,0.0,bread,0,bed,3520.0,Rspan.long,E2
323,12.0,S,22.0,1.0,head,1,bread,4136.0,Rspan.long,E2
324,12.0,S,22.0,2.0,thread,2,red,4800.0,Rspan.long,E2
325,12.0,S,22.0,3.0,bed,3,,4056.0,Rspan.long,E2
326,12.0,S,23.0,0.0,jar,0,jar,3905.0,Rspan.long,E2
327,12.0,S,23.0,1.0,bar,1,bar,4440.0,Rspan.long,E2
328,12.0,S,23.0,2.0,car,2,car,4040.0,Rspan.long,E2
329,12.0,S,23.0,3.0,scar,3,scar,5848.0,Rspan.long,E2
330,12.0,S,23.0,4.0,star,,,3656.0,Rspan.long,E2
331,12.0,S,24.0,0.0,pie,0,pie,4569.0,Rspan.long,E2
332,12.0,S,24.0,1.0,fly,1,fly,3895.0,Rspan.long,E2
333,12.0,S,24.0,2.0,tie,2,tie,4520.0,Rspan.long,E2
334,12.0,S,24.0,3.0,sky,3,eye,3432.0,Rspan.long,E2
335,12.0,S,24.0,4.0,eye,,,4264.0,Rspan.long,E2
336,12.0,S,25.0,0.0,boot,0,boot,3857.0,Rspan.long,E2
337,12.0,S,25.0,1.0,suit,1,root,4272.0,Rspan.long,E2
338,12.0,S,25.0,2.0,flute,2,loot,5816.0,Rspan.long,E2
339,12.0,S,25.0,3.0,loot,3,flute,4856.0,Rspan.long,E2
340,12.0,S,25.0,4.0,root,4,brute,4912.0,Rspan.long,E2
341,12.0,S,25.0,5.0,brute,,,5632.0,Rspan.long,E2
342,12.0,S,26.0,0.0,blouse,0,blouse,3433.0,Rspan.long,E2
343,12.0,S,26.0,1.0,house,1,house,3423.0,Rspan.long,E2
344,12.0,S,26.0,2.0,mouse,2,mouse,5376.0,Rspan.long,E2
345,12.0,S,27.0,0.0,bone,0,bone,5089.0,Rspan.long,E2
346,12.0,S,27.0,1.0,phone,1,phone,3952.0,Rspan.long,E2
347,12.0,S,27.0,2.0,stone,2,stone,3959.0,Rspan.long,E2
348,14.0,P,0.0,0.0,farm,0,farm,,Rspan.long,E2
349,14.0,P,0.0,1.0,arm,1,arm,,Rspan.long,E2
350,14.0,P,1.0,0.0,earth,0,earth,,Rspan.long,E2
351,14.0,P,1.0,1.0,peach,1,peach,,Rspan.long,E2
352,14.0,P,2.0,0.0,bath,0,bath,,Rspan.long,E2
353,14.0,P,2.0,1.0,dawn,1,dawn,,Rspan.long,E2
354,14.0,P,3.0,0.0,hood,0,hood,,Rspan.long,E2
355,14.0,P,3.0,1.0,wood,1,wood,,Rspan.long,E2
356,14.0,D,4.0,0.0,neck,0,neck,4231.0,Rspan.long,E2
357,14.0,D,4.0,1.0,town,1,town,3432.0,Rspan.long,E2
358,14.0,D,4.0,2.0,hat,2,hat,4024.0,Rspan.long,E2
359,14.0,D,4.0,3.0,street,3,street,4856.0,Rspan.long,E2
360,14.0,D,5.0,0.0,shell,0,shell,4297.0,Rspan.long,E2
361,14.0,D,5.0,1.0,tree,1,tree,5832.0,Rspan.long,E2
362,14.0,D,5.0,2.0,bowl,2,,3648.0,Rspan.long,E2
363,14.0,D,5.0,3.0,broom,3,,6264.0,Rspan.long,E2
364,14.0,D,5.0,4.0,test,4,,4752.0,Rspan.long,E2
365,14.0,D,5.0,5.0,ground,5,bowl,4728.0,Rspan.long,E2
366,14.0,D,6.0,0.0,mare,0,mare,4665.0,Rspan.long,E2
367,14.0,D,6.0,1.0,bell,1,bell,3224.0,Rspan.long,E2
368,14.0,D,6.0,2.0,brain,2,brain,4024.0,Rspan.long,E2
369,14.0,D,6.0,3.0,beef,3,beef,5080.0,Rspan.long,E2
370,14.0,D,7.0,0.0,beard,0,beard,4021.0,Rspan.long,E2
371,14.0,D,7.0,1.0,hill,1,hill,3592.0,Rspan.long,E2
372,14.0,D,7.0,2.0,dirt,2,,4408.0,Rspan.long,E2
373,14.0,D,7.0,3.0,card,3,coat,4712.0,Rspan.long,E2
374,14.0,D,7.0,4.0,line,4,line,4600.0,Rspan.long,E2
375,14.0,D,8.0,0.0,rice,0,beard,5409.0,Rspan.long,E2
376,14.0,D,8.0,1.0,cat,1,rice,4551.0,Rspan.long,E2
377,14.0,D,8.0,2.0,trash,2,trash,5224.0,Rspan.long,E2
378,14.0,D,9.0,0.0,coin,0,coin,4889.0,Rspan.long,E2
379,14.0,D,9.0,1.0,film,1,film,3991.0,Rspan.long,E2
380,14.0,D,9.0,2.0,leaf,2,trash,5120.0,Rspan.long,E2
381,14.0,D,9.0,3.0,train,3,,4152.0,Rspan.long,E2
382,14.0,D,9.0,4.0,map,,,5304.0,Rspan.long,E2
383,14.0,D,9.0,5.0,art,,,5432.0,Rspan.long,E2
384,14.0,D,10.0,0.0,spice,0,,5633.0,Rspan.long,E2
385,14.0,D,10.0,1.0,heat,1,spice,4744.0,Rspan.long,E2
386,14.0,D,10.0,2.0,shape,2,heat,6504.0,Rspan.long,E2
387,14.0,D,10.0,3.0,pear,3,jest,7008.0,Rspan.long,E2
388,14.0,D,10.0,4.0,guest,,,4383.0,Rspan.long,E2
389,14.0,D,11.0,0.0,toy,0,toy,4033.0,Rspan.long,E2
390,14.0,D,11.0,1.0,wreck,1,wreck,4336.0,Rspan.long,E2
391,14.0,D,11.0,2.0,frown,2,frown,4256.0,Rspan.long,E2
392,14.0,D,12.0,0.0,chest,0,toy,4201.0,Rspan.long,E2
393,14.0,D,12.0,1.0,lane,1,chest,4144.0,Rspan.long,E2
394,14.0,D,12.0,2.0,hair,2,hair,6704.0,Rspan.long,E2
395,14.0,D,12.0,3.0,crown,3,fall,4504.0,Rspan.long,E2
396,14.0,D,13.0,0.0,deck,0,deck,4521.0,Rspan.long,E2
397,14.0,D,13.0,1.0,slice,1,slice,4167.0,Rspan.long,E2
398,14.0,D,13.0,2.0,rat,2,rat,4960.0,Rspan.long,E2
399,14.0,D,14.0,0.0,ant,0,ant,4024.0,Rspan.long,E2
400,14.0,D,14.0,1.0,air,1,air,4160.0,Rspan.long,E2
401,14.0,D,14.0,2.0,ink,2,breath,5304.0,Rspan.long,E2
402,14.0,D,14.0,3.0,cloud,3,cloud,5776.0,Rspan.long,E2
403,14.0,D,14.0,4.0,seat,4,,4920.0,Rspan.long,E2
404,14.0,D,14.0,5.0,breath,5,seat,5016.0,Rspan.long,E2
405,14.0,D,15.0,0.0,path,0,,4497.0,Rspan.long,E2
406,14.0,D,15.0,1.0,nest,1,,5792.0,Rspan.long,E2
407,14.0,D,15.0,2.0,square,2,nest,5224.0,Rspan.long,E2
408,14.0,D,15.0,3.0,wood,3,wood,4656.0,Rspan.long,E2
409,14.0,D,15.0,4.0,beach,4,beach,5088.0,Rspan.long,E2
410,14.0,S,16.0,0.0,boot,0,boot,6432.0,Rspan.long,E2
411,14.0,S,16.0,1.0,suit,1,suit,4144.0,Rspan.long,E2
412,14.0,S,16.0,2.0,flute,2,flute,3792.0,Rspan.long,E2
413,14.0,S,16.0,3.0,loot,3,root,4752.0,Rspan.long,E2
414,14.0,S,16.0,4.0,root,4,loot,5879.0,Rspan.long,E2
415,14.0,S,16.0,5.0,brute,,,4088.0,Rspan.long,E2
416,14.0,S,17.0,0.0,blouse,0,blouse,4105.0,Rspan.long,E2
417,14.0,S,17.0,1.0,house,1,house,3087.0,Rspan.long,E2
418,14.0,S,17.0,2.0,mouse,2,mouse,6032.0,Rspan.long,E2
419,14.0,S,18.0,0.0,cream,0,cream,3585.0,Rspan.long,E2
420,14.0,S,18.0,1.0,team,1,team,4623.0,Rspan.long,E2
421,14.0,S,18.0,2.0,steam,2,steam,4264.0,Rspan.long,E2
422,14.0,S,19.0,0.0,jar,0,bar,5433.0,Rspan.long,E2
423,14.0,S,19.0,1.0,bar,1,jar,6088.0,Rspan.long,E2
424,14.0,S,19.0,2.0,car,2,car,5367.0,Rspan.long,E2
425,14.0,S,19.0,3.0,scar,3,scar,5416.0,Rspan.long,E2
426,14.0,S,19.0,4.0,star,4,star,4176.0,Rspan.long,E2
427,14.0,S,20.0,0.0,doll,0,ball,3849.0,Rspan.long,E2
428,14.0,S,20.0,1.0,ball,1,doll,4256.0,Rspan.long,E2
429,14.0,S,20.0,2.0,shawl,2,,4424.0,Rspan.long,E2
430,14.0,S,20.0,3.0,hall,3,stall,4352.0,Rspan.long,E2
431,14.0,S,20.0,4.0,brawl,4,brawl,4264.0,Rspan.long,E2
432,14.0,S,20.0,5.0,wall,5,,4512.0,Rspan.long,E2
433,14.0,S,21.0,0.0,deer,0,deer,3392.0,Rspan.long,E2
434,14.0,S,21.0,1.0,sphere,1,sphere,3911.0,Rspan.long,E2
435,14.0,S,21.0,2.0,ear,2,ear,3928.0,Rspan.long,E2
436,14.0,S,21.0,3.0,tear,3,tear,4240.0,Rspan.long,E2
437,14.0,S,22.0,0.0,king,0,king,3705.0,Rspan.long,E2
438,14.0,S,22.0,1.0,ring,1,ring,3959.0,Rspan.long,E2
439,14.0,S,22.0,2.0,spring,2,spring,4767.0,Rspan.long,E2
440,14.0,S,22.0,3.0,string,3,string,5704.0,Rspan.long,E2
441,14.0,S,22.0,4.0,wing,4,ring,3768.0,Rspan.long,E2
442,14.0,S,23.0,0.0,bone,0,phone,5416.0,Rspan.long,E2
443,14.0,S,23.0,1.0,phone,1,bone,4656.0,Rspan.long,E2
444,14.0,S,23.0,2.0,stone,2,stone,6007.0,Rspan.long,E2
445,14.0,S,24.0,0.0,pie,0,tie,4457.0,Rspan.long,E2
446,14.0,S,24.0,1.0,fly,1,fly,4192.0,Rspan.long,E2
447,14.0,S,24.0,2.0,tie,2,pie,5008.0,Rspan.long,E2
448,14.0,S,24.0,3.0,sky,3,eye,5560.0,Rspan.long,E2
449,14.0,S,24.0,4.0,eye,,,5056.0,Rspan.long,E2
450,14.0,S,25.0,0.0,bread,0,bread,3313.0,Rspan.long,E2
451,14.0,S,25.0,1.0,head,1,head,4271.0,Rspan.long,E2
452,14.0,S,25.0,2.0,thread,2,thread,3863.0,Rspan.long,E2
453,14.0,S,25.0,3.0,bed,3,bed,5528.0,Rspan.long,E2
454,14.0,S,26.0,0.0,band,0,band,3929.0,Rspan.long,E2
455,14.0,S,26.0,1.0,land,1,land,3807.0,Rspan.long,E2
456,14.0,S,26.0,2.0,stand,2,stand,3920.0,Rspan.long,E2
457,14.0,S,26.0,3.0,hand,3,hand,4752.0,Rspan.long,E2
458,14.0,S,27.0,0.0,mail,0,mail,3913.0,Rspan.long,E2
459,14.0,S,27.0,1.0,sail,1,trail,4160.0,Rspan.long,E2
460,14.0,S,27.0,2.0,trail,2,sail,3672.0,Rspan.long,E2
461,14.0,S,27.0,3.0,wail,3,,4384.0,Rspan.long,E2
462,14.0,S,27.0,4.0,tail,4,tail,4896.0,Rspan.long,E2
463,14.0,S,27.0,5.0,jail,,,3656.0,Rspan.long,E2
464,16.0,P,0.0,0.0,hood,0,hood,,Rspan.long,E2
465,16.0,P,0.0,1.0,wood,1,wood,,Rspan.long,E2
466,16.0,P,1.0,0.0,farm,0,farm,,Rspan.long,E2
467,16.0,P,1.0,1.0,arm,1,arm,,Rspan.long,E2
468,16.0,P,2.0,0.0,bath,0,bath,,Rspan.long,E2
469,16.0,P,2.0,1.0,dawn,1,dawn,,Rspan.long,E2
470,16.0,P,3.0,0.0,earth,0,earth,,Rspan.long,E2
471,16.0,P,3.0,1.0,peach,1,peach,,Rspan.long,E2
472,16.0,S,4.0,0.0,doll,0,doll,3631.0,Rspan.long,E2
473,16.0,S,4.0,1.0,ball,1,ball,3687.0,Rspan.long,E2
474,16.0,S,4.0,2.0,shawl,2,shawl,3823.0,Rspan.long,E2
475,16.0,S,4.0,3.0,hall,3,,3943.0,Rspan.long,E2
476,16.0,S,4.0,4.0,brawl,4,brawl,4151.0,Rspan.long,E2
477,16.0,S,4.0,5.0,wall,,,3447.0,Rspan.long,E2
478,16.0,S,5.0,0.0,blouse,0,blouse,3328.0,Rspan.long,E2
479,16.0,S,5.0,1.0,house,1,house,2887.0,Rspan.long,E2
480,16.0,S,5.0,2.0,mouse,2,mouse,3887.0,Rspan.long,E2
481,16.0,S,6.0,0.0,bread,0,bread,3768.0,Rspan.long,E2
482,16.0,S,6.0,1.0,head,1,thread,4295.0,Rspan.long,E2
483,16.0,S,6.0,2.0,thread,2,,3927.0,Rspan.long,E2
484,16.0,S,6.0,3.0,bed,3,bed,4207.0,Rspan.long,E2
485,16.0,S,7.0,0.0,mail,0,mail,3904.0,Rspan.long,E2
486,16.0,S,7.0,1.0,sail,1,tail,3799.0,Rspan.long,E2
487,16.0,S,7.0,2.0,trail,2,wail,3375.0,Rspan.long,E2
488,16.0,S,7.0,3.0,wail,3,ajil,4239.0,Rspan.long,E2
489,16.0,S,7.0,4.0,tail,,,4207.0,Rspan.long,E2
490,16.0,S,7.0,5.0,jail,,,3487.0,Rspan.long,E2
491,16.0,S,8.0,0.0,jar,0,jar,3903.0,Rspan.long,E2
492,16.0,S,8.0,1.0,bar,1,bar,3719.0,Rspan.long,E2
493,16.0,S,8.0,2.0,car,2,,3167.0,Rspan.long,E2
494,16.0,S,8.0,3.0,scar,3,scar,4175.0,Rspan.long,E2
495,16.0,S,8.0,4.0,star,4,star,3727.0,Rspan.long,E2
496,16.0,S,9.0,0.0,cream,0,cream,3433.0,Rspan.long,E2
497,16.0,S,9.0,1.0,team,1,team,5599.0,Rspan.long,E2
498,16.0,S,9.0,2.0,steam,2,steam,3943.0,Rspan.long,E2
499,16.0,S,10.0,0.0,boot,0,boot,3777.0,Rspan.long,E2
500,16.0,S,10.0,1.0,suit,1,flute,4175.0,Rspan.long,E2
501,16.0,S,10.0,2.0,flute,2,loot,3791.0,Rspan.long,E2
502,16.0,S,10.0,3.0,loot,3,brute,4535.0,Rspan.long,E2
503,16.0,S,10.0,4.0,root,,,4535.0,Rspan.long,E2
504,16.0,S,10.0,5.0,brute,,,3799.0,Rspan.long,E2
505,16.0,S,11.0,0.0,bone,0,bone,4064.0,Rspan.long,E2
506,16.0,S,11.0,1.0,phone,1,phone,3663.0,Rspan.long,E2
507,16.0,S,11.0,2.0,stone,2,stone,3639.0,Rspan.long,E2
508,16.0,S,12.0,0.0,king,0,ring,4392.0,Rspan.long,E2
509,16.0,S,12.0,1.0,ring,1,sing,3447.0,Rspan.long,E2
510,16.0,S,12.0,2.0,spring,2,string,4311.0,Rspan.long,E2
511,16.0,S,12.0,3.0,string,3,wing,3815.0,Rspan.long,E2
512,16.0,S,12.0,4.0,wing,,,3967.0,Rspan.long,E2
513,16.0,S,13.0,0.0,pie,0,pie,3576.0,Rspan.long,E2
514,16.0,S,13.0,1.0,fly,1,fly,3663.0,Rspan.long,E2
515,16.0,S,13.0,2.0,tie,2,tie,4095.0,Rspan.long,E2
516,16.0,S,13.0,3.0,sky,3,sky,4079.0,Rspan.long,E2
517,16.0,S,13.0,4.0,eye,4,eye,4455.0,Rspan.long,E2
518,16.0,S,14.0,0.0,band,0,band,3912.0,Rspan.long,E2
519,16.0,S,14.0,1.0,land,1,land,3295.0,Rspan.long,E2
520,16.0,S,14.0,2.0,stand,2,stand,4383.0,Rspan.long,E2
521,16.0,S,14.0,3.0,hand,3,hand,4719.0,Rspan.long,E2
522,16.0,S,15.0,0.0,deer,0,deer,2689.0,Rspan.long,E2
523,16.0,S,15.0,1.0,sphere,1,,3311.0,Rspan.long,E2
524,16.0,S,15.0,2.0,ear,2,ear,3927.0,Rspan.long,E2
525,16.0,S,15.0,3.0,tear,3,tear,4015.0,Rspan.long,E2
526,16.0,D,16.0,0.0,toy,0,toy,3647.0,Rspan.long,E2
527,16.0,D,16.0,1.0,wreck,1,wreck,4319.0,Rspan.long,E2
528,16.0,D,16.0,2.0,frown,2,frown,4543.0,Rspan.long,E2
529,16.0,D,17.0,0.0,spice,0,spice,3697.0,Rspan.long,E2
530,16.0,D,17.0,1.0,heat,1,heat,4967.0,Rspan.long,E2
531,16.0,D,17.0,2.0,shape,2,,4615.0,Rspan.long,E2
532,16.0,D,17.0,3.0,pear,3,chair,4431.0,Rspan.long,E2
533,16.0,D,17.0,4.0,guest,4,guest,4223.0,Rspan.long,E2
534,16.0,D,18.0,0.0,ant,0,ant,3497.0,Rspan.long,E2
535,16.0,D,18.0,1.0,air,1,pear,3703.0,Rspan.long,E2
536,16.0,D,18.0,2.0,ink,2,,4167.0,Rspan.long,E2
537,16.0,D,18.0,3.0,cloud,3,seat,4695.0,Rspan.long,E2
538,16.0,D,18.0,4.0,seat,4,breath,4031.0,Rspan.long,E2
539,16.0,D,18.0,5.0,breath,,,3871.0,Rspan.long,E2
540,16.0,D,19.0,0.0,shell,0,,3144.0,Rspan.long,E2
541,16.0,D,19.0,1.0,tree,1,,4135.0,Rspan.long,E2
542,16.0,D,19.0,2.0,bowl,2,test,4111.0,Rspan.long,E2
543,16.0,D,19.0,3.0,broom,3,ground,4135.0,Rspan.long,E2
544,16.0,D,19.0,4.0,test,,,4479.0,Rspan.long,E2
545,16.0,D,19.0,5.0,ground,,,3887.0,Rspan.long,E2
546,16.0,D,20.0,0.0,path,0,,3864.0,Rspan.long,E2
547,16.0,D,20.0,1.0,nest,1,,4455.0,Rspan.long,E2
548,16.0,D,20.0,2.0,square,2,air,3871.0,Rspan.long,E2
549,16.0,D,20.0,3.0,wood,3,beach,3455.0,Rspan.long,E2
550,16.0,D,20.0,4.0,beach,,,4087.0,Rspan.long,E2
551,16.0,D,21.0,0.0,neck,0,neck,3848.0,Rspan.long,E2
552,16.0,D,21.0,1.0,town,1,,3367.0,Rspan.long,E2
553,16.0,D,21.0,2.0,hat,2,hat,4711.0,Rspan.long,E2
554,16.0,D,21.0,3.0,street,3,street,3671.0,Rspan.long,E2
555,16.0,D,22.0,0.0,deck,0,deck,4040.0,Rspan.long,E2
556,16.0,D,22.0,1.0,slice,1,slice,3463.0,Rspan.long,E2
557,16.0,D,22.0,2.0,rat,2,rat,4391.0,Rspan.long,E2
558,16.0,D,23.0,0.0,rice,0,rice,4336.0,Rspan.long,E2
559,16.0,D,23.0,1.0,cat,1,cat,3751.0,Rspan.long,E2
560,16.0,D,23.0,2.0,trash,2,trash,4031.0,Rspan.long,E2
561,16.0,D,24.0,0.0,mare,0,mare,4080.0,Rspan.long,E2
562,16.0,D,24.0,1.0,bell,1,bell,2911.0,Rspan.long,E2
563,16.0,D,24.0,2.0,brain,2,brain,3919.0,Rspan.long,E2
564,16.0,D,24.0,3.0,beef,3,beef,4767.0,Rspan.long,E2
565,16.0,D,25.0,0.0,beard,0,beard,4185.0,Rspan.long,E2
566,16.0,D,25.0,1.0,hill,1,,3439.0,Rspan.long,E2
567,16.0,D,25.0,2.0,dirt,2,card,4423.0,Rspan.long,E2
568,16.0,D,25.0,3.0,card,3,line,4087.0,Rspan.long,E2
569,16.0,D,25.0,4.0,line,,,3863.0,Rspan.long,E2
570,16.0,D,26.0,0.0,coin,0,coin,4384.0,Rspan.long,E2
571,16.0,D,26.0,1.0,film,1,film,4559.0,Rspan.long,E2
572,16.0,D,26.0,2.0,leaf,2,,4311.0,Rspan.long,E2
573,16.0,D,26.0,3.0,train,3,art,5079.0,Rspan.long,E2
574,16.0,D,26.0,4.0,map,,,4015.0,Rspan.long,E2
575,16.0,D,26.0,5.0,art,,,3711.0,Rspan.long,E2
576,16.0,D,27.0,0.0,chest,0,chair,4240.0,Rspan.long,E2
577,16.0,D,27.0,1.0,lane,1,,4495.0,Rspan.long,E2
578,16.0,D,27.0,2.0,hair,2,,4535.0,Rspan.long,E2
579,16.0,D,27.0,3.0,crown,3,hair,4095.0,Rspan.long,E2
580,18.0,P,0.0,0.0,hood,0,hood,,Rspan.long,E2
581,18.0,P,0.0,1.0,wood,1,wood,,Rspan.long,E2
582,18.0,P,1.0,0.0,farm,0,farm,,Rspan.long,E2
583,18.0,P,1.0,1.0,arm,1,arm,,Rspan.long,E2
584,18.0,P,2.0,0.0,earth,0,earth,,Rspan.long,E2
585,18.0,P,2.0,1.0,peach,1,peach,,Rspan.long,E2
586,18.0,P,3.0,0.0,bath,0,bath,,Rspan.long,E2
587,18.0,P,3.0,1.0,dawn,1,dawn,,Rspan.long,E2
588,18.0,S,4.0,0.0,boot,0,boot,3974.0,Rspan.long,E2
589,18.0,S,4.0,1.0,suit,1,suit,3630.0,Rspan.long,E2
590,18.0,S,4.0,2.0,flute,2,loot,3719.0,Rspan.long,E2
591,18.0,S,4.0,3.0,loot,3,brute,3919.0,Rspan.long,E2
592,18.0,S,4.0,4.0,root,4,,4199.0,Rspan.long,E2
593,18.0,S,4.0,5.0,brute,5,,3791.0,Rspan.long,E2
594,18.0,S,5.0,0.0,doll,0,doll,4784.0,Rspan.long,E2
595,18.0,S,5.0,1.0,ball,1,brawl,3511.0,Rspan.long,E2
596,18.0,S,5.0,2.0,shawl,2,shawl,3775.0,Rspan.long,E2
597,18.0,S,5.0,3.0,hall,3,wall,3887.0,Rspan.long,E2
598,18.0,S,5.0,4.0,brawl,4,ball,4599.0,Rspan.long,E2
599,18.0,S,5.0,5.0,wall,5,,3335.0,Rspan.long,E2
600,18.0,S,6.0,0.0,bread,0,bread,3512.0,Rspan.long,E2
601,18.0,S,6.0,1.0,head,1,thread,4127.0,Rspan.long,E2
602,18.0,S,6.0,2.0,thread,2,shed,4127.0,Rspan.long,E2
603,18.0,S,6.0,3.0,bed,3,bed,4967.0,Rspan.long,E2
604,18.0,S,7.0,0.0,band,0,band,4088.0,Rspan.long,E2
605,18.0,S,7.0,1.0,land,1,,3759.0,Rspan.long,E2
606,18.0,S,7.0,2.0,stand,2,stand,4487.0,Rspan.long,E2
607,18.0,S,7.0,3.0,hand,3,hand,4039.0,Rspan.long,E2
608,18.0,S,8.0,0.0,king,0,king,4160.0,Rspan.long,E2
609,18.0,S,8.0,1.0,ring,1,spring,3679.0,Rspan.long,E2
610,18.0,S,8.0,2.0,spring,2,wing,4311.0,Rspan.long,E2
611,18.0,S,8.0,3.0,string,3,string,4175.0,Rspan.long,E2
612,18.0,S,8.0,4.0,wing,4,ring,4191.0,Rspan.long,E2
613,18.0,S,9.0,0.0,cream,0,cream,4000.0,Rspan.long,E2
614,18.0,S,9.0,1.0,team,1,team,4159.0,Rspan.long,E2
615,18.0,S,9.0,2.0,steam,2,steam,3815.0,Rspan.long,E2
616,18.0,S,10.0,0.0,mail,0,mail,4408.0,Rspan.long,E2
617,18.0,S,10.0,1.0,sail,1,sail,4063.0,Rspan.long,E2
618,18.0,S,10.0,2.0,trail,2,,3327.0,Rspan.long,E2
619,18.0,S,10.0,3.0,wail,3,jail,4343.0,Rspan.long,E2
620,18.0,S,10.0,4.0,tail,4,trail,5319.0,Rspan.long,E2
621,18.0,S,10.0,5.0,jail,5,tail,3751.0,Rspan.long,E2
622,18.0,S,11.0,0.0,deer,0,dear,3704.0,Rspan.long,E2
623,18.0,S,11.0,1.0,sphere,1,sphere,4167.0,Rspan.long,E2
624,18.0,S,11.0,2.0,ear,2,ear,4351.0,Rspan.long,E2
625,18.0,S,11.0,3.0,tear,3,tear,4191.0,Rspan.long,E2
626,18.0,S,12.0,0.0,blouse,0,blouse,3368.0,Rspan.long,E2
627,18.0,S,12.0,1.0,house,1,house,2847.0,Rspan.long,E2
628,18.0,S,12.0,2.0,mouse,2,mouse,3847.0,Rspan.long,E2
629,18.0,S,13.0,0.0,bone,0,bone,4104.0,Rspan.long,E2
630,18.0,S,13.0,1.0,phone,1,phone,4183.0,Rspan.long,E2
631,18.0,S,13.0,2.0,stone,2,stone,3559.0,Rspan.long,E2
632,18.0,S,14.0,0.0,pie,0,pie,4200.0,Rspan.long,E2
633,18.0,S,14.0,1.0,fly,1,tie,3943.0,Rspan.long,E2
634,18.0,S,14.0,2.0,tie,2,fly,3831.0,Rspan.long,E2
635,18.0,S,14.0,3.0,sky,3,sky,4375.0,Rspan.long,E2
636,18.0,S,14.0,4.0,eye,4,eye,4495.0,Rspan.long,E2
637,18.0,S,15.0,0.0,jar,0,bar,4056.0,Rspan.long,E2
638,18.0,S,15.0,1.0,bar,1,jar,4119.0,Rspan.long,E2
639,18.0,S,15.0,2.0,car,2,,3239.0,Rspan.long,E2
640,18.0,S,15.0,3.0,scar,3,,4159.0,Rspan.long,E2
641,18.0,S,15.0,4.0,star,4,,4831.0,Rspan.long,E2
642,18.0,D,16.0,0.0,ant,0,ant,4048.0,Rspan.long,E2
643,18.0,D,16.0,1.0,air,1,air,3735.0,Rspan.long,E2
644,18.0,D,16.0,2.0,ink,2,sink,4207.0,Rspan.long,E2
645,18.0,D,16.0,3.0,cloud,3,teeth,4631.0,Rspan.long,E2
646,18.0,D,16.0,4.0,seat,4,ink,5183.0,Rspan.long,E2
647,18.0,D,16.0,5.0,breath,5,breath,4135.0,Rspan.long,E2
648,18.0,D,17.0,0.0,toy,0,toy,5000.0,Rspan.long,E2
649,18.0,D,17.0,1.0,wreck,1,wreck,4663.0,Rspan.long,E2
650,18.0,D,17.0,2.0,frown,2,frown,5607.0,Rspan.long,E2
651,18.0,D,18.0,0.0,rice,0,rice,4832.0,Rspan.long,E2
652,18.0,D,18.0,1.0,cat,1,cat,4271.0,Rspan.long,E2
653,18.0,D,18.0,2.0,trash,2,trash,4871.0,Rspan.long,E2
654,18.0,D,19.0,0.0,beard,0,beard,3856.0,Rspan.long,E2
655,18.0,D,19.0,1.0,hill,1,,3543.0,Rspan.long,E2
656,18.0,D,19.0,2.0,dirt,2,,4879.0,Rspan.long,E2
657,18.0,D,19.0,3.0,card,3,dust,4543.0,Rspan.long,E2
658,18.0,D,19.0,4.0,line,,,4551.0,Rspan.long,E2
659,18.0,D,20.0,0.0,spice,0,hair,4200.0,Rspan.long,E2
660,18.0,D,20.0,1.0,heat,1,,4455.0,Rspan.long,E2
661,18.0,D,20.0,2.0,shape,2,,4295.0,Rspan.long,E2
662,18.0,D,20.0,3.0,pear,3,pear,4895.0,Rspan.long,E2
663,18.0,D,20.0,4.0,guest,4,guest,4655.0,Rspan.long,E2
664,18.0,D,21.0,0.0,coin,0,film,5176.0,Rspan.long,E2
665,18.0,D,21.0,1.0,film,1,,4319.0,Rspan.long,E2
666,18.0,D,21.0,2.0,leaf,2,,4903.0,Rspan.long,E2
667,18.0,D,21.0,3.0,train,3,train,4575.0,Rspan.long,E2
668,18.0,D,21.0,4.0,map,4,map,5239.0,Rspan.long,E2
669,18.0,D,21.0,5.0,art,5,art,4439.0,Rspan.long,E2
670,18.0,D,22.0,0.0,deck,0,deck,4616.0,Rspan.long,E2
671,18.0,D,22.0,1.0,slice,1,slice,3831.0,Rspan.long,E2
672,18.0,D,22.0,2.0,rat,2,rat,3999.0,Rspan.long,E2
673,18.0,D,23.0,0.0,path,0,path,4112.0,Rspan.long,E2
674,18.0,D,23.0,1.0,nest,1,square,5239.0,Rspan.long,E2
675,18.0,D,23.0,2.0,square,2,wood,3807.0,Rspan.long,E2
676,18.0,D,23.0,3.0,wood,3,beach,5927.0,Rspan.long,E2
677,18.0,D,23.0,4.0,beach,,,4191.0,Rspan.long,E2
678,18.0,D,24.0,0.0,mare,0,mare,4312.0,Rspan.long,E2
679,18.0,D,24.0,1.0,bell,1,bell,3175.0,Rspan.long,E2
680,18.0,D,24.0,2.0,brain,2,brain,3727.0,Rspan.long,E2
681,18.0,D,24.0,3.0,beef,3,beef,5135.0,Rspan.long,E2
682,18.0,D,25.0,0.0,neck,0,neck,4032.0,Rspan.long,E2
683,18.0,D,25.0,1.0,town,1,town,3511.0,Rspan.long,E2
684,18.0,D,25.0,2.0,hat,2,hat,4127.0,Rspan.long,E2
685,18.0,D,25.0,3.0,street,3,street,4199.0,Rspan.long,E2
686,18.0,D,26.0,0.0,chest,0,chest,4400.0,Rspan.long,E2
687,18.0,D,26.0,1.0,lane,1,lane,4871.0,Rspan.long,E2
688,18.0,D,26.0,2.0,hair,2,hair,4751.0,Rspan.long,E2
689,18.0,D,26.0,3.0,crown,3,crown,4095.0,Rspan.long,E2
690,18.0,D,27.0,0.0,shell,0,,3632.0,Rspan.long,E2
691,18.0,D,27.0,1.0,tree,1,,4487.0,Rspan.long,E2
692,18.0,D,27.0,2.0,bowl,2,,4039.0,Rspan.long,E2
693,18.0,D,27.0,3.0,broom,3,shell,4127.0,Rspan.long,E2
694,18.0,D,27.0,4.0,test,4,test,4735.0,Rspan.long,E2
695,18.0,D,27.0,5.0,ground,5,ground,4391.0,Rspan.long,E2
696,20.0,P,0.0,0.0,farm,0,farm,,Rspan.long,E2
697,20.0,P,0.0,1.0,arm,1,arm,,Rspan.long,E2
698,20.0,P,1.0,0.0,hood,0,hood,,Rspan.long,E2
699,20.0,P,1.0,1.0,wood,1,wood,,Rspan.long,E2
700,20.0,P,2.0,0.0,earth,0,earth,,Rspan.long,E2
701,20.0,P,2.0,1.0,peach,1,peach,,Rspan.long,E2
702,20.0,P,3.0,0.0,bath,0,bath,,Rspan.long,E2
703,20.0,P,3.0,1.0,dawn,1,dawn,,Rspan.long,E2
704,20.0,D,4.0,0.0,deck,0,deck,4902.0,Rspan.long,E2
705,20.0,D,4.0,1.0,slice,1,slice,4271.0,Rspan.long,E2
706,20.0,D,4.0,2.0,rat,2,rat,4448.0,Rspan.long,E2
707,20.0,D,5.0,0.0,coin,0,coin,4649.0,Rspan.long,E2
708,20.0,D,5.0,1.0,film,1,,5223.0,Rspan.long,E2
709,20.0,D,5.0,2.0,leaf,2,,5128.0,Rspan.long,E2
710,20.0,D,5.0,3.0,train,3,stance,5239.0,Rspan.long,E2
711,20.0,D,5.0,4.0,map,4,arch,4632.0,Rspan.long,E2
712,20.0,D,5.0,5.0,art,5,,4136.0,Rspan.long,E2
713,20.0,D,6.0,0.0,spice,0,,4976.0,Rspan.long,E2
714,20.0,D,6.0,1.0,heat,1,,4495.0,Rspan.long,E2
715,20.0,D,6.0,2.0,shape,2,,4520.0,Rspan.long,E2
716,20.0,D,6.0,3.0,pear,3,shape,4312.0,Rspan.long,E2
717,20.0,D,6.0,4.0,guest,4,pear,4456.0,Rspan.long,E2
718,20.0,D,7.0,0.0,path,0,,4056.0,Rspan.long,E2
719,20.0,D,7.0,1.0,nest,1,,5703.0,Rspan.long,E2
720,20.0,D,7.0,2.0,square,2,,4064.0,Rspan.long,E2
721,20.0,D,7.0,3.0,wood,3,wood,4568.0,Rspan.long,E2
722,20.0,D,7.0,4.0,beach,4,beach,5120.0,Rspan.long,E2
723,20.0,D,8.0,0.0,chest,0,chest,5033.0,Rspan.long,E2
724,20.0,D,8.0,1.0,lane,1,lane,4640.0,Rspan.long,E2
725,20.0,D,8.0,2.0,hair,2,hair,4944.0,Rspan.long,E2
726,20.0,D,8.0,3.0,crown,3,crown,3976.0,Rspan.long,E2
727,20.0,D,9.0,0.0,ant,0,ant,4593.0,Rspan.long,E2
728,20.0,D,9.0,1.0,air,1,air,3808.0,Rspan.long,E2
729,20.0,D,9.0,2.0,ink,2,,4328.0,Rspan.long,E2
730,20.0,D,9.0,3.0,cloud,3,seat,4560.0,Rspan.long,E2
731,20.0,D,9.0,4.0,seat,4,breath,4192.0,Rspan.long,E2
732,20.0,D,9.0,5.0,breath,5,,4144.0,Rspan.long,E2
733,20.0,D,10.0,0.0,toy,0,toy,3985.0,Rspan.long,E2
734,20.0,D,10.0,1.0,wreck,1,wreck,4592.0,Rspan.long,E2
735,20.0,D,10.0,2.0,frown,2,frown,4992.0,Rspan.long,E2
736,20.0,D,11.0,0.0,neck,0,neck,4505.0,Rspan.long,E2
737,20.0,D,11.0,1.0,town,1,town,3696.0,Rspan.long,E2
738,20.0,D,11.0,2.0,hat,2,hat,3943.0,Rspan.long,E2
739,20.0,D,11.0,3.0,street,3,street,4135.0,Rspan.long,E2
740,20.0,D,12.0,0.0,shell,0,shell,4553.0,Rspan.long,E2
741,20.0,D,12.0,1.0,tree,1,tree,4064.0,Rspan.long,E2
742,20.0,D,12.0,2.0,bowl,2,,3536.0,Rspan.long,E2
743,20.0,D,12.0,3.0,broom,3,bored,6264.0,Rspan.long,E2
744,20.0,D,12.0,4.0,test,4,ground,4703.0,Rspan.long,E2
745,20.0,D,12.0,5.0,ground,5,,4680.0,Rspan.long,E2
746,20.0,D,13.0,0.0,rice,0,rice,4569.0,Rspan.long,E2
747,20.0,D,13.0,1.0,cat,1,cat,4192.0,Rspan.long,E2
748,20.0,D,13.0,2.0,trash,2,trash,4632.0,Rspan.long,E2
749,20.0,D,14.0,0.0,beard,0,beard,3841.0,Rspan.long,E2
750,20.0,D,14.0,1.0,hill,1,,3639.0,Rspan.long,E2
751,20.0,D,14.0,2.0,dirt,2,card,4536.0,Rspan.long,E2
752,20.0,D,14.0,3.0,card,3,line,4208.0,Rspan.long,E2
753,20.0,D,14.0,4.0,line,4,,4104.0,Rspan.long,E2
754,20.0,D,15.0,0.0,mare,0,,4601.0,Rspan.long,E2
755,20.0,D,15.0,1.0,bell,1,,3471.0,Rspan.long,E2
756,20.0,D,15.0,2.0,brain,2,brain,5344.0,Rspan.long,E2
757,20.0,D,15.0,3.0,beef,3,beef,4840.0,Rspan.long,E2
758,20.0,S,16.0,0.0,king,0,king,3950.0,Rspan.long,E2
759,20.0,S,16.0,1.0,ring,1,ring,3368.0,Rspan.long,E2
760,20.0,S,16.0,2.0,spring,2,string,3999.0,Rspan.long,E2
761,20.0,S,16.0,3.0,string,3,wing,3760.0,Rspan.long,E2
762,20.0,S,16.0,4.0,wing,4,,3640.0,Rspan.long,E2
763,20.0,S,17.0,0.0,pie,0,pie,4151.0,Rspan.long,E2
764,20.0,S,17.0,1.0,fly,1,,3399.0,Rspan.long,E2
765,20.0,S,17.0,2.0,tie,2,,4104.0,Rspan.long,E2
766,20.0,S,17.0,3.0,sky,3,sky,3672.0,Rspan.long,E2
767,20.0,S,17.0,4.0,eye,4,eye,4192.0,Rspan.long,E2
768,20.0,S,18.0,0.0,cream,0,cream,3689.0,Rspan.long,E2
769,20.0,S,18.0,1.0,team,1,team,4912.0,Rspan.long,E2
770,20.0,S,18.0,2.0,steam,2,steam,4000.0,Rspan.long,E2
771,20.0,S,19.0,0.0,jar,0,jar,3928.0,Rspan.long,E2
772,20.0,S,19.0,1.0,bar,1,bar,3736.0,Rspan.long,E2
773,20.0,S,19.0,2.0,car,2,car,3048.0,Rspan.long,E2
774,20.0,S,19.0,3.0,scar,3,star,3840.0,Rspan.long,E2
775,20.0,S,19.0,4.0,star,4,,3688.0,Rspan.long,E2
776,20.0,S,20.0,0.0,mail,0,,4273.0,Rspan.long,E2
777,20.0,S,20.0,1.0,sail,1,,3423.0,Rspan.long,E2
778,20.0,S,20.0,2.0,trail,2,mail,3200.0,Rspan.long,E2
779,20.0,S,20.0,3.0,wail,3,wail,4008.0,Rspan.long,E2
780,20.0,S,20.0,4.0,tail,4,jail,4864.0,Rspan.long,E2
781,20.0,S,20.0,5.0,jail,5,,3672.0,Rspan.long,E2
782,20.0,S,21.0,0.0,blouse,0,house,3288.0,Rspan.long,E2
783,20.0,S,21.0,1.0,house,1,blouse,3079.0,Rspan.long,E2
784,20.0,S,21.0,2.0,mouse,2,mouse,3816.0,Rspan.long,E2
785,20.0,S,22.0,0.0,deer,0,deer,3025.0,Rspan.long,E2
786,20.0,S,22.0,1.0,sphere,1,sphere,3504.0,Rspan.long,E2
787,20.0,S,22.0,2.0,ear,2,ear,3816.0,Rspan.long,E2
788,20.0,S,22.0,3.0,tear,3,tear,3864.0,Rspan.long,E2
789,20.0,S,23.0,0.0,boot,0,boot,3817.0,Rspan.long,E2
790,20.0,S,23.0,1.0,suit,1,suit,3928.0,Rspan.long,E2
791,20.0,S,23.0,2.0,flute,2,,3679.0,Rspan.long,E2
792,20.0,S,23.0,3.0,loot,3,loot,4240.0,Rspan.long,E2
793,20.0,S,23.0,4.0,root,4,brute,3728.0,Rspan.long,E2
794,20.0,S,23.0,5.0,brute,5,,3831.0,Rspan.long,E2
795,20.0,S,24.0,0.0,bread,0,bread,3353.0,Rspan.long,E2
796,20.0,S,24.0,1.0,head,1,head,3808.0,Rspan.long,E2
797,20.0,S,24.0,2.0,thread,2,,3528.0,Rspan.long,E2
798,20.0,S,24.0,3.0,bed,3,,4248.0,Rspan.long,E2
799,20.0,S,25.0,0.0,band,0,band,3729.0,Rspan.long,E2
800,20.0,S,25.0,1.0,land,1,,3368.0,Rspan.long,E2
801,20.0,S,25.0,2.0,stand,2,stand,4056.0,Rspan.long,E2
802,20.0,S,25.0,3.0,hand,3,hand,3879.0,Rspan.long,E2
803,20.0,S,26.0,0.0,bone,0,bone,4512.0,Rspan.long,E2
804,20.0,S,26.0,1.0,phone,1,,3688.0,Rspan.long,E2
805,20.0,S,26.0,2.0,stone,2,stone,3496.0,Rspan.long,E2
806,20.0,S,27.0,0.0,doll,0,,3944.0,Rspan.long,E2
807,20.0,S,27.0,1.0,ball,1,,3512.0,Rspan.long,E2
808,20.0,S,27.0,2.0,shawl,2,,3680.0,Rspan.long,E2
809,20.0,S,27.0,3.0,hall,3,brawl,4352.0,Rspan.long,E2
810,20.0,S,27.0,4.0,brawl,4,walll,3864.0,Rspan.long,E2
811,20.0,S,27.0,5.0,wall,5,,3055.0,Rspan.long,E2
812,22.0,P,0.0,0.0,bath,0,bath,,Rspan.long,E2
813,22.0,P,0.0,1.0,dawn,1,dawn,,Rspan.long,E2
814,22.0,P,1.0,0.0,farm,0,farm,,Rspan.long,E2
815,22.0,P,1.0,1.0,arm,1,arm,,Rspan.long,E2
816,22.0,P,2.0,0.0,earth,0,earth,,Rspan.long,E2
817,22.0,P,2.0,1.0,peach,1,peach,,Rspan.long,E2
818,22.0,P,3.0,0.0,hood,0,hood,,Rspan.long,E2
819,22.0,P,3.0,1.0,wood,1,wood,,Rspan.long,E2
820,22.0,D,4.0,0.0,chest,0,cheat,5263.0,Rspan.long,E2
821,22.0,D,4.0,1.0,lane,1,lane,6799.0,Rspan.long,E2
822,22.0,D,4.0,2.0,hair,2,,7120.0,Rspan.long,E2
823,22.0,D,4.0,3.0,crown,3,crown,6295.0,Rspan.long,E2
824,22.0,D,5.0,0.0,path,0,case,5905.0,Rspan.long,E2
825,22.0,D,5.0,1.0,nest,1,,6759.0,Rspan.long,E2
826,22.0,D,5.0,2.0,square,2,peach,5888.0,Rspan.long,E2
827,22.0,D,5.0,3.0,wood,3,,5495.0,Rspan.long,E2
828,22.0,D,5.0,4.0,beach,4,state,6591.0,Rspan.long,E2
829,22.0,D,6.0,0.0,rice,0,rice,9783.0,Rspan.long,E2
830,22.0,D,6.0,1.0,cat,1,cat,4791.0,Rspan.long,E2
831,22.0,D,6.0,2.0,trash,2,trash,6031.0,Rspan.long,E2
832,22.0,D,7.0,0.0,deck,0,,8376.0,Rspan.long,E2
833,22.0,D,7.0,1.0,slice,1,slice,5463.0,Rspan.long,E2
834,22.0,D,7.0,2.0,rat,2,rate,5480.0,Rspan.long,E2
835,22.0,D,8.0,0.0,coin,0,,5864.0,Rspan.long,E2
836,22.0,D,8.0,1.0,film,1,,6735.0,Rspan.long,E2
837,22.0,D,8.0,2.0,leaf,2,art,5919.0,Rspan.long,E2
838,22.0,D,8.0,3.0,train,3,,7583.0,Rspan.long,E2
839,22.0,D,8.0,4.0,map,,,5431.0,Rspan.long,E2
840,22.0,D,8.0,5.0,art,,,5095.0,Rspan.long,E2
841,22.0,D,9.0,0.0,ant,0,ant,8385.0,Rspan.long,E2
842,22.0,D,9.0,1.0,air,1,ink,4903.0,Rspan.long,E2
843,22.0,D,9.0,2.0,ink,2,cloud,5007.0,Rspan.long,E2
844,22.0,D,9.0,3.0,cloud,3,,5864.0,Rspan.long,E2
845,22.0,D,9.0,4.0,seat,4,,5191.0,Rspan.long,E2
846,22.0,D,9.0,5.0,breath,5,,5936.0,Rspan.long,E2
847,22.0,D,10.0,0.0,spice,0,spice,4975.0,Rspan.long,E2
848,22.0,D,10.0,1.0,heat,1,pear,5984.0,Rspan.long,E2
849,22.0,D,10.0,2.0,shape,2,guest,6415.0,Rspan.long,E2
850,22.0,D,10.0,3.0,pear,3,,5479.0,Rspan.long,E2
851,22.0,D,10.0,4.0,guest,,,5567.0,Rspan.long,E2
852,22.0,D,11.0,0.0,beard,0,line,5416.0,Rspan.long,E2
853,22.0,D,11.0,1.0,hill,1,,6199.0,Rspan.long,E2
854,22.0,D,11.0,2.0,dirt,,,5464.0,Rspan.long,E2
855,22.0,D,11.0,3.0,card,,,4935.0,Rspan.long,E2
856,22.0,D,11.0,4.0,line,,,5015.0,Rspan.long,E2
857,22.0,D,12.0,0.0,shell,0,bowl,4304.0,Rspan.long,E2
858,22.0,D,12.0,1.0,tree,1,,5855.0,Rspan.long,E2
859,22.0,D,12.0,2.0,bowl,2,,5407.0,Rspan.long,E2
860,22.0,D,12.0,3.0,broom,3,,6519.0,Rspan.long,E2
861,22.0,D,12.0,4.0,test,4,ground,4615.0,Rspan.long,E2
862,22.0,D,12.0,5.0,ground,5,,5863.0,Rspan.long,E2
863,22.0,D,13.0,0.0,toy,0,toy,6409.0,Rspan.long,E2
864,22.0,D,13.0,1.0,wreck,1,wreck,5279.0,Rspan.long,E2
865,22.0,D,13.0,2.0,frown,2,frown,4848.0,Rspan.long,E2
866,22.0,D,14.0,0.0,mare,0,mare,5056.0,Rspan.long,E2
867,22.0,D,14.0,1.0,bell,1,bell,4280.0,Rspan.long,E2
868,22.0,D,14.0,2.0,brain,2,brain,5488.0,Rspan.long,E2
869,22.0,D,14.0,3.0,beef,3,beef,5103.0,Rspan.long,E2
870,22.0,D,15.0,0.0,neck,0,neck,5521.0,Rspan.long,E2
871,22.0,D,15.0,1.0,town,1,crown,3959.0,Rspan.long,E2
872,22.0,D,15.0,2.0,hat,2,hat,5783.0,Rspan.long,E2
873,22.0,D,15.0,3.0,street,3,street,5871.0,Rspan.long,E2
874,22.0,S,16.0,0.0,mail,0,mail,5103.0,Rspan.long,E2
875,22.0,S,16.0,1.0,sail,1,snail,3807.0,Rspan.long,E2
876,22.0,S,16.0,2.0,trail,2,tail,4447.0,Rspan.long,E2
877,22.0,S,16.0,3.0,wail,3,jail,5016.0,Rspan.long,E2
878,22.0,S,16.0,4.0,tail,4,,7231.0,Rspan.long,E2
879,22.0,S,16.0,5.0,jail,,,5119.0,Rspan.long,E2
880,22.0,S,17.0,0.0,jar,0,bar,5528.0,Rspan.long,E2
881,22.0,S,17.0,1.0,bar,1,jar,5072.0,Rspan.long,E2
882,22.0,S,17.0,2.0,car,2,car,4144.0,Rspan.long,E2
883,22.0,S,17.0,3.0,scar,3,scar,4831.0,Rspan.long,E2
884,22.0,S,17.0,4.0,star,4,,6599.0,Rspan.long,E2
885,22.0,S,18.0,0.0,boot,0,,4489.0,Rspan.long,E2
886,22.0,S,18.0,1.0,suit,1,,4927.0,Rspan.long,E2
887,22.0,S,18.0,2.0,flute,2,loot,4992.0,Rspan.long,E2
888,22.0,S,18.0,3.0,loot,3,flute,5615.0,Rspan.long,E2
889,22.0,S,18.0,4.0,root,4,brute,4759.0,Rspan.long,E2
890,22.0,S,18.0,5.0,brute,5,,4703.0,Rspan.long,E2
891,22.0,S,19.0,0.0,blouse,0,,3704.0,Rspan.long,E2
892,22.0,S,19.0,1.0,house,1,house,4447.0,Rspan.long,E2
893,22.0,S,19.0,2.0,mouse,2,mouse,4671.0,Rspan.long,E2
894,22.0,S,20.0,0.0,bone,0,phone,5240.0,Rspan.long,E2
895,22.0,S,20.0,1.0,phone,1,bone,4711.0,Rspan.long,E2
896,22.0,S,20.0,2.0,stone,2,stone,4208.0,Rspan.long,E2
897,22.0,S,21.0,0.0,king,0,king,5665.0,Rspan.long,E2
898,22.0,S,21.0,1.0,ring,1,,4143.0,Rspan.long,E2
899,22.0,S,21.0,2.0,spring,2,,5623.0,Rspan.long,E2
900,22.0,S,21.0,3.0,string,3,string,3927.0,Rspan.long,E2
901,22.0,S,21.0,4.0,wing,4,wing,4967.0,Rspan.long,E2
902,22.0,S,22.0,0.0,bread,0,,4824.0,Rspan.long,E2
903,22.0,S,22.0,1.0,head,1,head,5007.0,Rspan.long,E2
904,22.0,S,22.0,2.0,thread,2,,5264.0,Rspan.long,E2
905,22.0,S,22.0,3.0,bed,3,bed,5191.0,Rspan.long,E2
906,22.0,S,23.0,0.0,deer,0,,4113.0,Rspan.long,E2
907,22.0,S,23.0,1.0,sphere,1,,5560.0,Rspan.long,E2
908,22.0,S,23.0,2.0,ear,2,dear,4631.0,Rspan.long,E2
909,22.0,S,23.0,3.0,tear,3,tear,5567.0,Rspan.long,E2
910,22.0,S,24.0,0.0,cream,0,cream,5265.0,Rspan.long,E2
911,22.0,S,24.0,1.0,team,1,,5247.0,Rspan.long,E2
912,22.0,S,24.0,2.0,steam,2,steam,6055.0,Rspan.long,E2
913,22.0,S,25.0,0.0,doll,0,,4857.0,Rspan.long,E2
914,22.0,S,25.0,1.0,ball,1,,4927.0,Rspan.long,E2
915,22.0,S,25.0,2.0,shawl,2,,6055.0,Rspan.long,E2
916,22.0,S,25.0,3.0,hall,3,,6183.0,Rspan.long,E2
917,22.0,S,25.0,4.0,brawl,4,brawl,5511.0,Rspan.long,E2
918,22.0,S,25.0,5.0,wall,5,wall,3463.0,Rspan.long,E2
919,22.0,S,26.0,0.0,band,0,,4664.0,Rspan.long,E2
920,22.0,S,26.0,1.0,land,1,,4727.0,Rspan.long,E2
921,22.0,S,26.0,2.0,stand,2,bland,6279.0,Rspan.long,E2
922,22.0,S,26.0,3.0,hand,3,hand,5951.0,Rspan.long,E2
923,22.0,S,27.0,0.0,pie,0,pie,4592.0,Rspan.long,E2
924,22.0,S,27.0,1.0,fly,1,fly,4871.0,Rspan.long,E2
925,22.0,S,27.0,2.0,tie,2,,5207.0,Rspan.long,E2
926,22.0,S,27.0,3.0,sky,3,sky,6447.0,Rspan.long,E2
927,22.0,S,27.0,4.0,eye,4,,5863.0,Rspan.long,E2
928,24.0,P,0.0,0.0,farm,0,farm,,Rspan.long,E2
929,24.0,P,0.0,1.0,arm,1,arm,,Rspan.long,E2
930,24.0,P,1.0,0.0,hood,0,hood,,Rspan.long,E2
931,24.0,P,1.0,1.0,wood,1,wood,,Rspan.long,E2
932,24.0,P,2.0,0.0,earth,0,earth,,Rspan.long,E2
933,24.0,P,2.0,1.0,peach,1,peach,,Rspan.long,E2
934,24.0,P,3.0,0.0,bath,0,bath,,Rspan.long,E2
935,24.0,P,3.0,1.0,dawn,1,dawn,,Rspan.long,E2
936,24.0,S,4.0,0.0,pie,0,fly,4398.0,Rspan.long,E2
937,24.0,S,4.0,1.0,fly,1,pie,4208.0,Rspan.long,E2
938,24.0,S,4.0,2.0,tie,2,tie,4047.0,Rspan.long,E2
939,24.0,S,4.0,3.0,sky,3,sky,4440.0,Rspan.long,E2
940,24.0,S,4.0,4.0,eye,4,,4503.0,Rspan.long,E2
941,24.0,S,5.0,0.0,bone,0,bone,4505.0,Rspan.long,E2
942,24.0,S,5.0,1.0,phone,1,phone,4767.0,Rspan.long,E2
943,24.0,S,5.0,2.0,stone,2,stone,3960.0,Rspan.long,E2
944,24.0,S,6.0,0.0,blouse,0,blouse,3465.0,Rspan.long,E2
945,24.0,S,6.0,1.0,house,1,house,3343.0,Rspan.long,E2
946,24.0,S,6.0,2.0,mouse,2,mouse,4864.0,Rspan.long,E2
947,24.0,S,7.0,0.0,king,0,king,4089.0,Rspan.long,E2
948,24.0,S,7.0,1.0,ring,1,ring,4312.0,Rspan.long,E2
949,24.0,S,7.0,2.0,spring,2,spring,4320.0,Rspan.long,E2
950,24.0,S,7.0,3.0,string,3,string,4312.0,Rspan.long,E2
951,24.0,S,7.0,4.0,wing,4,wing,4392.0,Rspan.long,E2
952,24.0,S,8.0,0.0,jar,0,jar,4313.0,Rspan.long,E2
953,24.0,S,8.0,1.0,bar,1,bar,5104.0,Rspan.long,E2
954,24.0,S,8.0,2.0,car,2,car,3400.0,Rspan.long,E2
955,24.0,S,8.0,3.0,scar,3,scar,4264.0,Rspan.long,E2
956,24.0,S,8.0,4.0,star,4,stain,5304.0,Rspan.long,E2
957,24.0,S,9.0,0.0,boot,0,boot,4368.0,Rspan.long,E2
958,24.0,S,9.0,1.0,suit,1,suit,4272.0,Rspan.long,E2
959,24.0,S,9.0,2.0,flute,2,flute,4136.0,Rspan.long,E2
960,24.0,S,9.0,3.0,loot,3,loot,4792.0,Rspan.long,E2
961,24.0,S,9.0,4.0,root,4,,4776.0,Rspan.long,E2
962,24.0,S,9.0,5.0,brute,5,brute,3808.0,Rspan.long,E2
963,24.0,S,10.0,0.0,mail,0,mail,4640.0,Rspan.long,E2
964,24.0,S,10.0,1.0,sail,1,sail,4144.0,Rspan.long,E2
965,24.0,S,10.0,2.0,trail,2,trail,4183.0,Rspan.long,E2
966,24.0,S,10.0,3.0,wail,3,wale,5015.0,Rspan.long,E2
967,24.0,S,10.0,4.0,tail,4,,5943.0,Rspan.long,E2
968,24.0,S,10.0,5.0,jail,5,jail,4592.0,Rspan.long,E2
969,24.0,S,11.0,0.0,bread,0,bread,4513.0,Rspan.long,E2
970,24.0,S,11.0,1.0,head,1,thread,4888.0,Rspan.long,E2
971,24.0,S,11.0,2.0,thread,2,bed,4511.0,Rspan.long,E2
972,24.0,S,11.0,3.0,bed,,,4527.0,Rspan.long,E2
973,24.0,S,12.0,0.0,deer,0,deer,3633.0,Rspan.long,E2
974,24.0,S,12.0,1.0,sphere,1,sphere,4352.0,Rspan.long,E2
975,24.0,S,12.0,2.0,ear,2,ear,4895.0,Rspan.long,E2
976,24.0,S,12.0,3.0,tear,3,tear,4344.0,Rspan.long,E2
977,24.0,S,13.0,0.0,doll,0,doll,4193.0,Rspan.long,E2
978,24.0,S,13.0,1.0,ball,1,ball,4680.0,Rspan.long,E2
979,24.0,S,13.0,2.0,shawl,2,hall,4248.0,Rspan.long,E2
980,24.0,S,13.0,3.0,hall,3,brawl,4648.0,Rspan.long,E2
981,24.0,S,13.0,4.0,brawl,4,wall,4784.0,Rspan.long,E2
982,24.0,S,13.0,5.0,wall,,,3591.0,Rspan.long,E2
983,24.0,S,14.0,0.0,band,0,band,4641.0,Rspan.long,E2
984,24.0,S,14.0,1.0,land,1,land,3688.0,Rspan.long,E2
985,24.0,S,14.0,2.0,stand,2,stand,5536.0,Rspan.long,E2
986,24.0,S,14.0,3.0,hand,3,hand,5864.0,Rspan.long,E2
987,24.0,S,15.0,0.0,cream,0,cream,3929.0,Rspan.long,E2
988,24.0,S,15.0,1.0,team,1,team,4088.0,Rspan.long,E2
989,24.0,S,15.0,2.0,steam,2,steam,4968.0,Rspan.long,E2
990,24.0,D,16.0,0.0,rice,0,rice,5208.0,Rspan.long,E2
991,24.0,D,16.0,1.0,cat,1,cat,4511.0,Rspan.long,E2
992,24.0,D,16.0,2.0,trash,2,trash,4775.0,Rspan.long,E2
993,24.0,D,17.0,0.0,coin,0,coin,5465.0,Rspan.long,E2
994,24.0,D,17.0,1.0,film,1,,4263.0,Rspan.long,E2
995,24.0,D,17.0,2.0,leaf,2,train,5560.0,Rspan.long,E2
996,24.0,D,17.0,3.0,train,3,map,4848.0,Rspan.long,E2
997,24.0,D,17.0,4.0,map,4,art,4814.0,Rspan.long,E2
998,24.0,D,17.0,5.0,art,,,5142.0,Rspan.long,E2
999,24.0,D,18.0,0.0,deck,0,deck,5167.0,Rspan.long,E2
1000,24.0,D,18.0,1.0,slice,1,slice,4679.0,Rspan.long,E2
1001,24.0,D,18.0,2.0,rat,2,rat,4600.0,Rspan.long,E2
1002,24.0,D,19.0,0.0,ant,0,ant,4384.0,Rspan.long,E2
1003,24.0,D,19.0,1.0,air,1,air,5519.0,Rspan.long,E2
1004,24.0,D,19.0,2.0,ink,2,ink,4544.0,Rspan.long,E2
1005,24.0,D,19.0,3.0,cloud,3,cloud,5176.0,Rspan.long,E2
1006,24.0,D,19.0,4.0,seat,4,seat,4895.0,Rspan.long,E2
1007,24.0,D,19.0,5.0,breath,5,breath,4264.0,Rspan.long,E2
1008,24.0,D,20.0,0.0,beard,0,beard,4177.0,Rspan.long,E2
1009,24.0,D,20.0,1.0,hill,1,hill,4200.0,Rspan.long,E2
1010,24.0,D,20.0,2.0,dirt,2,dust,5135.0,Rspan.long,E2
1011,24.0,D,20.0,3.0,card,3,,4728.0,Rspan.long,E2
1012,24.0,D,20.0,4.0,line,4,line,4471.0,Rspan.long,E2
1013,24.0,D,21.0,0.0,toy,0,toy,4577.0,Rspan.long,E2
1014,24.0,D,21.0,1.0,wreck,1,wreck,5047.0,Rspan.long,E2
1015,24.0,D,21.0,2.0,frown,2,frown,4742.0,Rspan.long,E2
1016,24.0,D,22.0,0.0,path,0,path,4432.0,Rspan.long,E2
1017,24.0,D,22.0,1.0,nest,1,,4855.0,Rspan.long,E2
1018,24.0,D,22.0,2.0,square,2,,4752.0,Rspan.long,E2
1019,24.0,D,22.0,3.0,wood,3,wood,8415.0,Rspan.long,E2
1020,24.0,D,22.0,4.0,beach,4,beach,4960.0,Rspan.long,E2
1021,24.0,D,23.0,0.0,shell,0,shell,4001.0,Rspan.long,E2
1022,24.0,D,23.0,1.0,tree,1,tree,5007.0,Rspan.long,E2
1023,24.0,D,23.0,2.0,bowl,2,,4823.0,Rspan.long,E2
1024,24.0,D,23.0,3.0,broom,3,broom,5400.0,Rspan.long,E2
1025,24.0,D,23.0,4.0,test,4,test,4999.0,Rspan.long,E2
1026,24.0,D,23.0,5.0,ground,5,ground,4912.0,Rspan.long,E2
1027,24.0,D,24.0,0.0,neck,0,neck,4337.0,Rspan.long,E2
1028,24.0,D,24.0,1.0,town,1,down,4263.0,Rspan.long,E2
1029,24.0,D,24.0,2.0,hat,2,hair,4400.0,Rspan.long,E2
1030,24.0,D,24.0,3.0,street,3,street,6991.0,Rspan.long,E2
1031,24.0,D,25.0,0.0,spice,0,spice,5137.0,Rspan.long,E2
1032,24.0,D,25.0,1.0,heat,1,warm,4991.0,Rspan.long,E2
1033,24.0,D,25.0,2.0,shape,,,4975.0,Rspan.long,E2
1034,24.0,D,25.0,3.0,pear,,,5008.0,Rspan.long,E2
1035,24.0,D,25.0,4.0,guest,,,8064.0,Rspan.long,E2
1036,24.0,D,26.0,0.0,chest,0,chest,5009.0,Rspan.long,E2
1037,24.0,D,26.0,1.0,lane,1,lane,4903.0,Rspan.long,E2
1038,24.0,D,26.0,2.0,hair,2,hair,4735.0,Rspan.long,E2
1039,24.0,D,26.0,3.0,crown,3,crown,7512.0,Rspan.long,E2
1040,24.0,D,27.0,0.0,mare,0,mare,4633.0,Rspan.long,E2
1041,24.0,D,27.0,1.0,bell,1,bell,4176.0,Rspan.long,E2
1042,24.0,D,27.0,2.0,brain,2,brain,7184.0,Rspan.long,E2
1043,24.0,D,27.0,3.0,beef,3,beef,5455.0,Rspan.long,E2
1044,26.0,P,0.0,0.0,earth,0,earth,,Rspan.long,E2
1045,26.0,P,0.0,1.0,peach,1,peach,,Rspan.long,E2
1046,26.0,P,1.0,0.0,bath,0,bath,,Rspan.long,E2
1047,26.0,P,1.0,1.0,dawn,1,dawn,,Rspan.long,E2
1048,26.0,P,2.0,0.0,hood,0,hood,,Rspan.long,E2
1049,26.0,P,2.0,1.0,wood,1,wood,,Rspan.long,E2
1050,26.0,P,3.0,0.0,farm,0,farm,,Rspan.long,E2
1051,26.0,P,3.0,1.0,arm,1,arm,,Rspan.long,E2
1052,26.0,S,4.0,0.0,king,0,king,4071.0,Rspan.long,E2
1053,26.0,S,4.0,1.0,ring,1,ring,4063.0,Rspan.long,E2
1054,26.0,S,4.0,2.0,spring,2,spring,5495.0,Rspan.long,E2
1055,26.0,S,4.0,3.0,string,3,string,4607.0,Rspan.long,E2
1056,26.0,S,4.0,4.0,wing,4,wing,4247.0,Rspan.long,E2
1057,26.0,S,5.0,0.0,cream,0,cream,4209.0,Rspan.long,E2
1058,26.0,S,5.0,1.0,team,1,team,4407.0,Rspan.long,E2
1059,26.0,S,5.0,2.0,steam,2,stream,3799.0,Rspan.long,E2
1060,26.0,S,6.0,0.0,band,0,band,4185.0,Rspan.long,E2
1061,26.0,S,6.0,1.0,land,1,,4031.0,Rspan.long,E2
1062,26.0,S,6.0,2.0,stand,2,stand,4431.0,Rspan.long,E2
1063,26.0,S,6.0,3.0,hand,3,hand,5495.0,Rspan.long,E2
1064,26.0,S,7.0,0.0,boot,0,boot,4552.0,Rspan.long,E2
1065,26.0,S,7.0,1.0,suit,1,suit,5784.0,Rspan.long,E2
1066,26.0,S,7.0,2.0,flute,2,flute,3927.0,Rspan.long,E2
1067,26.0,S,7.0,3.0,loot,3,,4103.0,Rspan.long,E2
1068,26.0,S,7.0,4.0,root,4,root,3991.0,Rspan.long,E2
1069,26.0,S,7.0,5.0,brute,,,3983.0,Rspan.long,E2
1070,26.0,S,8.0,0.0,blouse,0,blouse,3409.0,Rspan.long,E2
1071,26.0,S,8.0,1.0,house,1,house,3127.0,Rspan.long,E2
1072,26.0,S,8.0,2.0,mouse,2,mouse,5039.0,Rspan.long,E2
1073,26.0,S,9.0,0.0,mail,0,mail,4177.0,Rspan.long,E2
1074,26.0,S,9.0,1.0,sail,1,sail,3535.0,Rspan.long,E2
1075,26.0,S,9.0,2.0,trail,2,trail,3303.0,Rspan.long,E2
1076,26.0,S,9.0,3.0,wail,3,wail,3959.0,Rspan.long,E2
1077,26.0,S,9.0,4.0,tail,4,jail,4239.0,Rspan.long,E2
1078,26.0,S,9.0,5.0,jail,,,3711.0,Rspan.long,E2
1079,26.0,S,10.0,0.0,jar,0,jar,4241.0,Rspan.long,E2
1080,26.0,S,10.0,1.0,bar,1,car,4551.0,Rspan.long,E2
1081,26.0,S,10.0,2.0,car,2,bar,3200.0,Rspan.long,E2
1082,26.0,S,10.0,3.0,scar,3,star,4496.0,Rspan.long,E2
1083,26.0,S,10.0,4.0,star,4,scar,3735.0,Rspan.long,E2
1084,26.0,S,11.0,0.0,doll,0,doll,4143.0,Rspan.long,E2
1085,26.0,S,11.0,1.0,ball,1,ball,4095.0,Rspan.long,E2
1086,26.0,S,11.0,2.0,shawl,2,shawl,4823.0,Rspan.long,E2
1087,26.0,S,11.0,3.0,hall,3,,4847.0,Rspan.long,E2
1088,26.0,S,11.0,4.0,brawl,4,wall,5167.0,Rspan.long,E2
1089,26.0,S,11.0,5.0,wall,,,3272.0,Rspan.long,E2
1090,26.0,S,12.0,0.0,bone,0,bone,4609.0,Rspan.long,E2
1091,26.0,S,12.0,1.0,phone,1,phone,3935.0,Rspan.long,E2
1092,26.0,S,12.0,2.0,stone,2,stone,5240.0,Rspan.long,E2
1093,26.0,S,13.0,0.0,deer,0,beer,3321.0,Rspan.long,E2
1094,26.0,S,13.0,1.0,sphere,1,sphere,3830.0,Rspan.long,E2
1095,26.0,S,13.0,2.0,ear,2,deer,4335.0,Rspan.long,E2
1096,26.0,S,13.0,3.0,tear,3,tear,4439.0,Rspan.long,E2
1097,26.0,S,14.0,0.0,pie,0,pie,4777.0,Rspan.long,E2
1098,26.0,S,14.0,1.0,fly,1,fly,3967.0,Rspan.long,E2
1099,26.0,S,14.0,2.0,tie,2,eye,4487.0,Rspan.long,E2
1100,26.0,S,14.0,3.0,sky,3,sky,4832.0,Rspan.long,E2
1101,26.0,S,14.0,4.0,eye,4,tie,4959.0,Rspan.long,E2
1102,26.0,S,15.0,0.0,bread,0,,3992.0,Rspan.long,E2
1103,26.0,S,15.0,1.0,head,1,head,6392.0,Rspan.long,E2
1104,26.0,S,15.0,2.0,thread,2,thread,4999.0,Rspan.long,E2
1105,26.0,S,15.0,3.0,bed,3,dead,5112.0,Rspan.long,E2
1106,26.0,D,16.0,0.0,beard,0,beard,4488.0,Rspan.long,E2
1107,26.0,D,16.0,1.0,hill,1,hill,4055.0,Rspan.long,E2
1108,26.0,D,16.0,2.0,dirt,2,,5431.0,Rspan.long,E2
1109,26.0,D,16.0,3.0,card,3,line,6215.0,Rspan.long,E2
1110,26.0,D,16.0,4.0,line,,,4959.0,Rspan.long,E2
1111,26.0,D,17.0,0.0,rice,0,rice,4728.0,Rspan.long,E2
1112,26.0,D,17.0,1.0,cat,1,cat,4687.0,Rspan.long,E2
1113,26.0,D,17.0,2.0,trash,2,trash,5159.0,Rspan.long,E2
1114,26.0,D,18.0,0.0,chest,0,,4399.0,Rspan.long,E2
1115,26.0,D,18.0,1.0,lane,1,,5663.0,Rspan.long,E2
1116,26.0,D,18.0,2.0,hair,2,hair,6831.0,Rspan.long,E2
1117,26.0,D,18.0,3.0,crown,3,crown,4511.0,Rspan.long,E2
1118,26.0,D,19.0,0.0,toy,0,toy,4017.0,Rspan.long,E2
1119,26.0,D,19.0,1.0,wreck,1,wreck,4775.0,Rspan.long,E2
1120,26.0,D,19.0,2.0,frown,2,frown,4279.0,Rspan.long,E2
1121,26.0,D,20.0,0.0,shell,0,,5079.0,Rspan.long,E2
1122,26.0,D,20.0,1.0,tree,1,bowl,4479.0,Rspan.long,E2
1123,26.0,D,20.0,2.0,bowl,2,tree,4455.0,Rspan.long,E2
1124,26.0,D,20.0,3.0,broom,3,,5623.0,Rspan.long,E2
1125,26.0,D,20.0,4.0,test,4,head,6672.0,Rspan.long,E2
1126,26.0,D,20.0,5.0,ground,5,,4927.0,Rspan.long,E2
1127,26.0,D,21.0,0.0,neck,0,neck,3832.0,Rspan.long,E2
1128,26.0,D,21.0,1.0,town,1,town,4015.0,Rspan.long,E2
1129,26.0,D,21.0,2.0,hat,2,hat,4856.0,Rspan.long,E2
1130,26.0,D,21.0,3.0,street,3,street,4383.0,Rspan.long,E2
1131,26.0,D,22.0,0.0,spice,0,spice,3728.0,Rspan.long,E2
1132,26.0,D,22.0,1.0,heat,1,heat,5543.0,Rspan.long,E2
1133,26.0,D,22.0,2.0,shape,2,shape,6855.0,Rspan.long,E2
1134,26.0,D,22.0,3.0,pear,3,pear,5135.0,Rspan.long,E2
1135,26.0,D,22.0,4.0,guest,4,guest,4727.0,Rspan.long,E2
1136,26.0,D,23.0,0.0,path,0,path,3863.0,Rspan.long,E2
1137,26.0,D,23.0,1.0,nest,1,nest,5551.0,Rspan.long,E2
1138,26.0,D,23.0,2.0,square,2,,4431.0,Rspan.long,E2
1139,26.0,D,23.0,3.0,wood,3,wood,4983.0,Rspan.long,E2
1140,26.0,D,23.0,4.0,beach,4,,5888.0,Rspan.long,E2
1141,26.0,D,24.0,0.0,ant,0,ant,4016.0,Rspan.long,E2
1142,26.0,D,24.0,1.0,air,1,air,3895.0,Rspan.long,E2
1143,26.0,D,24.0,2.0,ink,2,ink,5199.0,Rspan.long,E2
1144,26.0,D,24.0,3.0,cloud,3,cloud,4815.0,Rspan.long,E2
1145,26.0,D,24.0,4.0,seat,4,breath,4623.0,Rspan.long,E2
1146,26.0,D,24.0,5.0,breath,,,4911.0,Rspan.long,E2
1147,26.0,D,25.0,0.0,mare,0,mare,4736.0,Rspan.long,E2
1148,26.0,D,25.0,1.0,bell,1,bell,3575.0,Rspan.long,E2
1149,26.0,D,25.0,2.0,brain,2,brain,5071.0,Rspan.long,E2
1150,26.0,D,25.0,3.0,beef,3,beef,5822.0,Rspan.long,E2
1151,26.0,D,26.0,0.0,coin,0,coin,4353.0,Rspan.long,E2
1152,26.0,D,26.0,1.0,film,1,film,4551.0,Rspan.long,E2
1153,26.0,D,26.0,2.0,leaf,2,leaf,5247.0,Rspan.long,E2
1154,26.0,D,26.0,3.0,train,3,train,5863.0,Rspan.long,E2
1155,26.0,D,26.0,4.0,map,4,,5111.0,Rspan.long,E2
1156,26.0,D,26.0,5.0,art,5,art,6439.0,Rspan.long,E2
1157,26.0,D,27.0,0.0,deck,0,deck,5753.0,Rspan.long,E2
1158,26.0,D,27.0,1.0,slice,1,slice,4671.0,Rspan.long,E2
1159,26.0,D,27.0,2.0,rat,2,rat,3927.0,Rspan.long,E2
1160,28.0,P,0.0,0.0,bath,0,bath,,Rspan.long,E2
1161,28.0,P,0.0,1.0,dawn,1,dawn,,Rspan.long,E2
1162,28.0,P,1.0,0.0,farm,0,,,Rspan.long,E2
1163,28.0,P,1.0,1.0,arm,1,arm,,Rspan.long,E2
1164,28.0,P,2.0,0.0,hood,0,hood,,Rspan.long,E2
1165,28.0,P,2.0,1.0,wood,1,wood,,Rspan.long,E2
1166,28.0,P,3.0,0.0,earth,0,earth,,Rspan.long,E2
1167,28.0,P,3.0,1.0,peach,1,peach,,Rspan.long,E2
1168,28.0,S,4.0,0.0,mail,0,,4415.0,Rspan.long,E2
1169,28.0,S,4.0,1.0,sail,1,,3816.0,Rspan.long,E2
1170,28.0,S,4.0,2.0,trail,2,trail,4063.0,Rspan.long,E2
1171,28.0,S,4.0,3.0,wail,3,sail,4400.0,Rspan.long,E2
1172,28.0,S,4.0,4.0,tail,4,mail,4807.0,Rspan.long,E2
1173,28.0,S,4.0,5.0,jail,5,,4047.0,Rspan.long,E2
1174,28.0,S,5.0,0.0,king,0,king,4456.0,Rspan.long,E2
1175,28.0,S,5.0,1.0,ring,1,,4303.0,Rspan.long,E2
1176,28.0,S,5.0,2.0,spring,2,,4528.0,Rspan.long,E2
1177,28.0,S,5.0,3.0,string,3,,3872.0,Rspan.long,E2
1178,28.0,S,5.0,4.0,wing,4,,3951.0,Rspan.long,E2
1179,28.0,S,6.0,0.0,bone,0,bone,4769.0,Rspan.long,E2
1180,28.0,S,6.0,1.0,phone,1,phone,4103.0,Rspan.long,E2
1181,28.0,S,6.0,2.0,stone,2,stone,3519.0,Rspan.long,E2
1182,28.0,S,7.0,0.0,band,0,band,4216.0,Rspan.long,E2
1183,28.0,S,7.0,1.0,land,1,land,3687.0,Rspan.long,E2
1184,28.0,S,7.0,2.0,stand,2,stand,4455.0,Rspan.long,E2
1185,28.0,S,7.0,3.0,hand,3,hand,4159.0,Rspan.long,E2
1186,28.0,S,8.0,0.0,boot,0,boot,4209.0,Rspan.long,E2
1187,28.0,S,8.0,1.0,suit,1,flute,4072.0,Rspan.long,E2
1188,28.0,S,8.0,2.0,flute,2,,4191.0,Rspan.long,E2
1189,28.0,S,8.0,3.0,loot,3,,4256.0,Rspan.long,E2
1190,28.0,S,8.0,4.0,root,4,,4439.0,Rspan.long,E2
1191,28.0,S,8.0,5.0,brute,5,brute,4631.0,Rspan.long,E2
1192,28.0,S,9.0,0.0,blouse,0,blouse,3567.0,Rspan.long,E2
1193,28.0,S,9.0,1.0,house,1,house,3063.0,Rspan.long,E2
1194,28.0,S,9.0,2.0,mouse,2,mouse,3991.0,Rspan.long,E2
1195,28.0,S,10.0,0.0,pie,0,,4649.0,Rspan.long,E2
1196,28.0,S,10.0,1.0,fly,1,,3879.0,Rspan.long,E2
1197,28.0,S,10.0,2.0,tie,2,,3959.0,Rspan.long,E2
1198,28.0,S,10.0,3.0,sky,3,,3878.0,Rspan.long,E2
1199,28.0,S,10.0,4.0,eye,4,,5159.0,Rspan.long,E2
1200,28.0,S,11.0,0.0,deer,0,beer,3337.0,Rspan.long,E2
1201,28.0,S,11.0,1.0,sphere,1,sphere,3807.0,Rspan.long,E2
1202,28.0,S,11.0,2.0,ear,2,,4134.0,Rspan.long,E2
1203,28.0,S,11.0,3.0,tear,3,tear,4303.0,Rspan.long,E2
1204,28.0,S,12.0,0.0,doll,0,doll,4577.0,Rspan.long,E2
1205,28.0,S,12.0,1.0,ball,1,ball,4087.0,Rspan.long,E2
1206,28.0,S,12.0,2.0,shawl,2,,4127.0,Rspan.long,E2
1207,28.0,S,12.0,3.0,hall,3,brawl,4680.0,Rspan.long,E2
1208,28.0,S,12.0,4.0,brawl,4,,4679.0,Rspan.long,E2
1209,28.0,S,12.0,5.0,wall,5,fall,3319.0,Rspan.long,E2
1210,28.0,S,13.0,0.0,cream,0,cream,4137.0,Rspan.long,E2
1211,28.0,S,13.0,1.0,team,1,team,4375.0,Rspan.long,E2
1212,28.0,S,13.0,2.0,steam,2,steam,3887.0,Rspan.long,E2
1213,28.0,S,14.0,0.0,bread,0,bread,3673.0,Rspan.long,E2
1214,28.0,S,14.0,1.0,head,1,head,4248.0,Rspan.long,E2
1215,28.0,S,14.0,2.0,thread,2,,3983.0,Rspan.long,E2
1216,28.0,S,14.0,3.0,bed,3,bed,4328.0,Rspan.long,E2
1217,28.0,S,15.0,0.0,jar,0,,4329.0,Rspan.long,E2
1218,28.0,S,15.0,1.0,bar,1,,3919.0,Rspan.long,E2
1219,28.0,S,15.0,2.0,car,2,,3007.0,Rspan.long,E2
1220,28.0,S,15.0,3.0,scar,3,,3983.0,Rspan.long,E2
1221,28.0,S,15.0,4.0,star,4,bar,4183.0,Rspan.long,E2
1222,28.0,D,16.0,0.0,mare,0,bell,4904.0,Rspan.long,E2
1223,28.0,D,16.0,1.0,bell,1,brain,3279.0,Rspan.long,E2
1224,28.0,D,16.0,2.0,brain,2,,4343.0,Rspan.long,E2
1225,28.0,D,16.0,3.0,beef,3,beef,4767.0,Rspan.long,E2
1226,28.0,D,17.0,0.0,coin,0,,5233.0,Rspan.long,E2
1227,28.0,D,17.0,1.0,film,1,,4335.0,Rspan.long,E2
1228,28.0,D,17.0,2.0,leaf,2,,4127.0,Rspan.long,E2
1229,28.0,D,17.0,3.0,train,3,train,4687.0,Rspan.long,E2
1230,28.0,D,17.0,4.0,map,4,map,4711.0,Rspan.long,E2
1231,28.0,D,17.0,5.0,art,5,art,4304.0,Rspan.long,E2
1232,28.0,D,18.0,0.0,deck,0,,4951.0,Rspan.long,E2
1233,28.0,D,18.0,1.0,slice,1,,4247.0,Rspan.long,E2
1234,28.0,D,18.0,2.0,rat,2,slice,4327.0,Rspan.long,E2
1235,28.0,D,19.0,0.0,path,0,,4729.0,Rspan.long,E2
1236,28.0,D,19.0,1.0,nest,1,,5311.0,Rspan.long,E2
1237,28.0,D,19.0,2.0,square,2,,4015.0,Rspan.long,E2
1238,28.0,D,19.0,3.0,wood,3,wood,4207.0,Rspan.long,E2
1239,28.0,D,19.0,4.0,beach,4,beach,4335.0,Rspan.long,E2
1240,28.0,D,20.0,0.0,spice,0,,4585.0,Rspan.long,E2
1241,28.0,D,20.0,1.0,heat,1,,4647.0,Rspan.long,E2
1242,28.0,D,20.0,2.0,shape,2,pear,5239.0,Rspan.long,E2
1243,28.0,D,20.0,3.0,pear,3,guest,4343.0,Rspan.long,E2
1244,28.0,D,20.0,4.0,guest,,,4743.0,Rspan.long,E2
1245,28.0,D,21.0,0.0,chest,0,,5049.0,Rspan.long,E2
1246,28.0,D,21.0,1.0,lane,1,,5103.0,Rspan.long,E2
1247,28.0,D,21.0,2.0,hair,2,hair,4815.0,Rspan.long,E2
1248,28.0,D,21.0,3.0,crown,3,crown,4415.0,Rspan.long,E2
1249,28.0,D,22.0,0.0,toy,0,,3992.0,Rspan.long,E2
1250,28.0,D,22.0,1.0,wreck,1,toy,4615.0,Rspan.long,E2
1251,28.0,D,22.0,2.0,frown,2,rest,4207.0,Rspan.long,E2
1252,28.0,D,23.0,0.0,neck,0,,4377.0,Rspan.long,E2
1253,28.0,D,23.0,1.0,town,1,town,4183.0,Rspan.long,E2
1254,28.0,D,23.0,2.0,hat,2,hat,4503.0,Rspan.long,E2
1255,28.0,D,23.0,3.0,street,3,street,4343.0,Rspan.long,E2
1256,28.0,D,24.0,0.0,beard,0,,3913.0,Rspan.long,E2
1257,28.0,D,24.0,1.0,hill,1,,3783.0,Rspan.long,E2
1258,28.0,D,24.0,2.0,dirt,2,,4647.0,Rspan.long,E2
1259,28.0,D,24.0,3.0,card,3,,4742.0,Rspan.long,E2
1260,28.0,D,24.0,4.0,line,4,,5255.0,Rspan.long,E2
1261,28.0,D,25.0,0.0,shell,0,,3960.0,Rspan.long,E2
1262,28.0,D,25.0,1.0,tree,1,shell,4591.0,Rspan.long,E2
1263,28.0,D,25.0,2.0,bowl,2,,3911.0,Rspan.long,E2
1264,28.0,D,25.0,3.0,broom,3,,5327.0,Rspan.long,E2
1265,28.0,D,25.0,4.0,test,4,rest,4567.0,Rspan.long,E2
1266,28.0,D,25.0,5.0,ground,5,ground,4968.0,Rspan.long,E2
1267,28.0,D,26.0,0.0,ant,0,ant,4425.0,Rspan.long,E2
1268,28.0,D,26.0,1.0,air,1,,3887.0,Rspan.long,E2
1269,28.0,D,26.0,2.0,ink,2,,4343.0,Rspan.long,E2
1270,28.0,D,26.0,3.0,cloud,3,,4855.0,Rspan.long,E2
1271,28.0,D,26.0,4.0,seat,4,,4071.0,Rspan.long,E2
1272,28.0,D,26.0,5.0,breath,5,breath,4103.0,Rspan.long,E2
1273,28.0,D,27.0,0.0,rice,0,,5288.0,Rspan.long,E2
1274,28.0,D,27.0,1.0,cat,1,,4112.0,Rspan.long,E2
1275,28.0,D,27.0,2.0,trash,2,trash,4431.0,Rspan.long,E2
1276,30.0,P,0.0,0.0,earth,0,earth,,Rspan.long,E2
1277,30.0,P,0.0,1.0,peach,1,peach,,Rspan.long,E2
1278,30.0,P,1.0,0.0,bath,0,bath,,Rspan.long,E2
1279,30.0,P,1.0,1.0,dawn,1,dawn,,Rspan.long,E2
1280,30.0,P,2.0,0.0,farm,0,farm,,Rspan.long,E2
1281,30.0,P,2.0,1.0,arm,1,arm,,Rspan.long,E2
1282,30.0,P,3.0,0.0,hood,0,hood,,Rspan.long,E2
1283,30.0,P,3.0,1.0,wood,1,wood,,Rspan.long,E2
1284,30.0,D,4.0,0.0,deck,0,deck,4014.0,Rspan.long,E2
1285,30.0,D,4.0,1.0,slice,1,slice,3503.0,Rspan.long,E2
1286,30.0,D,4.0,2.0,rat,2,rat,3968.0,Rspan.long,E2
1287,30.0,D,5.0,0.0,ant,0,ant,3601.0,Rspan.long,E2
1288,30.0,D,5.0,1.0,air,1,air,3583.0,Rspan.long,E2
1289,30.0,D,5.0,2.0,ink,2,ink,3656.0,Rspan.long,E2
1290,30.0,D,5.0,3.0,cloud,3,seat,4015.0,Rspan.long,E2
1291,30.0,D,5.0,4.0,seat,4,breath,3815.0,Rspan.long,E2
1292,30.0,D,5.0,5.0,breath,,,3607.0,Rspan.long,E2
1293,30.0,D,6.0,0.0,chest,0,chest,4120.0,Rspan.long,E2
1294,30.0,D,6.0,1.0,lane,1,lane,4071.0,Rspan.long,E2
1295,30.0,D,6.0,2.0,hair,2,hair,3728.0,Rspan.long,E2
1296,30.0,D,6.0,3.0,crown,3,crown,7375.0,Rspan.long,E2
1297,30.0,D,7.0,0.0,rice,0,rice,4479.0,Rspan.long,E2
1298,30.0,D,7.0,1.0,cat,1,cat,3896.0,Rspan.long,E2
1299,30.0,D,7.0,2.0,trash,2,trash,3847.0,Rspan.long,E2
1300,30.0,D,8.0,0.0,coin,0,coin,4185.0,Rspan.long,E2
1301,30.0,D,8.0,1.0,film,1,film,4047.0,Rspan.long,E2
1302,30.0,D,8.0,2.0,leaf,2,leaf,4087.0,Rspan.long,E2
1303,30.0,D,8.0,3.0,train,3,,4024.0,Rspan.long,E2
1304,30.0,D,8.0,4.0,map,,,4024.0,Rspan.long,E2
1305,30.0,D,8.0,5.0,art,,,3783.0,Rspan.long,E2
1306,30.0,D,9.0,0.0,neck,0,town,4216.0,Rspan.long,E2
1307,30.0,D,9.0,1.0,town,1,hat,3575.0,Rspan.long,E2
1308,30.0,D,9.0,2.0,hat,2,pack,3775.0,Rspan.long,E2
1309,30.0,D,9.0,3.0,street,3,street,3744.0,Rspan.long,E2
1310,30.0,D,10.0,0.0,path,0,,4016.0,Rspan.long,E2
1311,30.0,D,10.0,1.0,nest,1,nest,4591.0,Rspan.long,E2
1312,30.0,D,10.0,2.0,square,2,path,3528.0,Rspan.long,E2
1313,30.0,D,10.0,3.0,wood,3,,5040.0,Rspan.long,E2
1314,30.0,D,10.0,4.0,beach,4,beach,3407.0,Rspan.long,E2
1315,30.0,D,11.0,0.0,spice,0,spice,4480.0,Rspan.long,E2
1316,30.0,D,11.0,1.0,heat,1,heat,3840.0,Rspan.long,E2
1317,30.0,D,11.0,2.0,shape,2,shape,4631.0,Rspan.long,E2
1318,30.0,D,11.0,3.0,pear,3,pear,4232.0,Rspan.long,E2
1319,30.0,D,11.0,4.0,guest,4,guest,4191.0,Rspan.long,E2
1320,30.0,D,12.0,0.0,shell,0,shell,3991.0,Rspan.long,E2
1321,30.0,D,12.0,1.0,tree,1,tree,3407.0,Rspan.long,E2
1322,30.0,D,12.0,2.0,bowl,2,,3480.0,Rspan.long,E2
1323,30.0,D,12.0,3.0,broom,3,,6703.0,Rspan.long,E2
1324,30.0,D,12.0,4.0,test,4,,4991.0,Rspan.long,E2
1325,30.0,D,12.0,5.0,ground,5,ground,4703.0,Rspan.long,E2
1326,30.0,D,13.0,0.0,mare,0,mare,4249.0,Rspan.long,E2
1327,30.0,D,13.0,1.0,bell,1,bell,3567.0,Rspan.long,E2
1328,30.0,D,13.0,2.0,brain,2,brain,4543.0,Rspan.long,E2
1329,30.0,D,13.0,3.0,beef,3,beef,5607.0,Rspan.long,E2
1330,30.0,D,14.0,0.0,toy,0,toy,3593.0,Rspan.long,E2
1331,30.0,D,14.0,1.0,wreck,1,wreck,3968.0,Rspan.long,E2
1332,30.0,D,14.0,2.0,frown,2,frown,3928.0,Rspan.long,E2
1333,30.0,D,15.0,0.0,beard,0,beard,3433.0,Rspan.long,E2
1334,30.0,D,15.0,1.0,hill,1,hill,4223.0,Rspan.long,E2
1335,30.0,D,15.0,2.0,dirt,2,dirt,4584.0,Rspan.long,E2
1336,30.0,D,15.0,3.0,card,3,line,3895.0,Rspan.long,E2
1337,30.0,D,15.0,4.0,line,,,3719.0,Rspan.long,E2
1338,30.0,S,16.0,0.0,mail,0,mail,3897.0,Rspan.long,E2
1339,30.0,S,16.0,1.0,sail,1,sail,3608.0,Rspan.long,E2
1340,30.0,S,16.0,2.0,trail,2,trail,3079.0,Rspan.long,E2
1341,30.0,S,16.0,3.0,wail,3,wail,3703.0,Rspan.long,E2
1342,30.0,S,16.0,4.0,tail,4,tail,4296.0,Rspan.long,E2
1343,30.0,S,16.0,5.0,jail,5,fail,3352.0,Rspan.long,E2
1344,30.0,S,17.0,0.0,boot,0,boot,4344.0,Rspan.long,E2
1345,30.0,S,17.0,1.0,suit,1,suit,3336.0,Rspan.long,E2
1346,30.0,S,17.0,2.0,flute,2,loot,3480.0,Rspan.long,E2
1347,30.0,S,17.0,3.0,loot,3,flute,4143.0,Rspan.long,E2
1348,30.0,S,17.0,4.0,root,4,root,3704.0,Rspan.long,E2
1349,30.0,S,17.0,5.0,brute,5,,3576.0,Rspan.long,E2
1350,30.0,S,18.0,0.0,bread,0,bread,3713.0,Rspan.long,E2
1351,30.0,S,18.0,1.0,head,1,head,3920.0,Rspan.long,E2
1352,30.0,S,18.0,2.0,thread,2,dead,3439.0,Rspan.long,E2
1353,30.0,S,18.0,3.0,bed,3,bed,5600.0,Rspan.long,E2
1354,30.0,S,19.0,0.0,doll,0,doll,3648.0,Rspan.long,E2
1355,30.0,S,19.0,1.0,ball,1,ball,3471.0,Rspan.long,E2
1356,30.0,S,19.0,2.0,shawl,2,shawl,3615.0,Rspan.long,E2
1357,30.0,S,19.0,3.0,hall,3,bawl,3816.0,Rspan.long,E2
1358,30.0,S,19.0,4.0,brawl,,,3583.0,Rspan.long,E2
1359,30.0,S,19.0,5.0,wall,,,3175.0,Rspan.long,E2
1360,30.0,S,20.0,0.0,bone,0,bone,4401.0,Rspan.long,E2
1361,30.0,S,20.0,1.0,phone,1,phone,3896.0,Rspan.long,E2
1362,30.0,S,20.0,2.0,stone,2,stone,3207.0,Rspan.long,E2
1363,30.0,S,21.0,0.0,blouse,0,blouse,2936.0,Rspan.long,E2
1364,30.0,S,21.0,1.0,house,1,house,2751.0,Rspan.long,E2
1365,30.0,S,21.0,2.0,mouse,2,mose,5679.0,Rspan.long,E2
1366,30.0,S,22.0,0.0,band,0,band,4232.0,Rspan.long,E2
1367,30.0,S,22.0,1.0,land,1,land,3359.0,Rspan.long,E2
1368,30.0,S,22.0,2.0,stand,2,stand,4064.0,Rspan.long,E2
1369,30.0,S,22.0,3.0,hand,3,,4191.0,Rspan.long,E2
1370,30.0,S,23.0,0.0,cream,0,cream,3441.0,Rspan.long,E2
1371,30.0,S,23.0,1.0,team,1,team,4096.0,Rspan.long,E2
1372,30.0,S,23.0,2.0,steam,2,steam,3592.0,Rspan.long,E2
1373,30.0,S,24.0,0.0,jar,0,jar,3633.0,Rspan.long,E2
1374,30.0,S,24.0,1.0,bar,1,bar,3712.0,Rspan.long,E2
1375,30.0,S,24.0,2.0,car,2,,2928.0,Rspan.long,E2
1376,30.0,S,24.0,3.0,scar,3,scar,3456.0,Rspan.long,E2
1377,30.0,S,24.0,4.0,star,4,star,3744.0,Rspan.long,E2
1378,30.0,S,25.0,0.0,deer,0,deer,2945.0,Rspan.long,E2
1379,30.0,S,25.0,1.0,sphere,1,steer,3808.0,Rspan.long,E2
1380,30.0,S,25.0,2.0,ear,2,ear,4232.0,Rspan.long,E2
1381,30.0,S,25.0,3.0,tear,,,4312.0,Rspan.long,E2
1382,30.0,S,26.0,0.0,king,0,king,3665.0,Rspan.long,E2
1383,30.0,S,26.0,1.0,ring,1,ring,3263.0,Rspan.long,E2
1384,30.0,S,26.0,2.0,spring,2,spring,3496.0,Rspan.long,E2
1385,30.0,S,26.0,3.0,string,3,string,3391.0,Rspan.long,E2
1386,30.0,S,26.0,4.0,wing,4,wing,3464.0,Rspan.long,E2
1387,30.0,S,27.0,0.0,pie,0,pie,3569.0,Rspan.long,E2
1388,30.0,S,27.0,1.0,fly,1,fly,3416.0,Rspan.long,E2
1389,30.0,S,27.0,2.0,tie,2,tie,4047.0,Rspan.long,E2
1390,30.0,S,27.0,3.0,sky,3,eye,3104.0,Rspan.long,E2
1391,30.0,S,27.0,4.0,eye,,,4584.0,Rspan.long,E2
1392,32.0,P,0.0,0.0,hood,0,hood,,Rspan.long,E2
1393,32.0,P,0.0,1.0,wood,1,wood,,Rspan.long,E2
1394,32.0,P,1.0,0.0,farm,0,farm,,Rspan.long,E2
1395,32.0,P,1.0,1.0,arm,1,arm,,Rspan.long,E2
1396,32.0,P,2.0,0.0,earth,0,earth,,Rspan.long,E2
1397,32.0,P,2.0,1.0,peach,1,peach,,Rspan.long,E2
1398,32.0,P,3.0,0.0,bath,0,bath,,Rspan.long,E2
1399,32.0,P,3.0,1.0,dawn,1,dawn,,Rspan.long,E2
1400,32.0,D,4.0,0.0,mare,0,,4095.0,Rspan.long,E2
1401,32.0,D,4.0,1.0,bell,1,bell,3103.0,Rspan.long,E2
1402,32.0,D,4.0,2.0,brain,2,,3703.0,Rspan.long,E2
1403,32.0,D,4.0,3.0,beef,3,brain,4615.0,Rspan.long,E2
1404,32.0,D,5.0,0.0,rice,0,rice,4473.0,Rspan.long,E2
1405,32.0,D,5.0,1.0,cat,1,cat,3774.0,Rspan.long,E2
1406,32.0,D,5.0,2.0,trash,2,trash,3719.0,Rspan.long,E2
1407,32.0,D,6.0,0.0,neck,0,,3672.0,Rspan.long,E2
1408,32.0,D,6.0,1.0,town,1,town,2911.0,Rspan.long,E2
1409,32.0,D,6.0,2.0,hat,2,,3495.0,Rspan.long,E2
1410,32.0,D,6.0,3.0,street,3,street,3543.0,Rspan.long,E2
1411,32.0,D,7.0,0.0,coin,0,coin,4304.0,Rspan.long,E2
1412,32.0,D,7.0,1.0,film,1,film,4327.0,Rspan.long,E2
1413,32.0,D,7.0,2.0,leaf,2,hat,4143.0,Rspan.long,E2
1414,32.0,D,7.0,3.0,train,3,,4239.0,Rspan.long,E2
1415,32.0,D,7.0,4.0,map,4,,3591.0,Rspan.long,E2
1416,32.0,D,7.0,5.0,art,5,art,3551.0,Rspan.long,E2
1417,32.0,D,8.0,0.0,toy,0,toy,3529.0,Rspan.long,E2
1418,32.0,D,8.0,1.0,wreck,1,wreck,4279.0,Rspan.long,E2
1419,32.0,D,8.0,2.0,frown,2,frown,4167.0,Rspan.long,E2
1420,32.0,D,9.0,0.0,beard,0,,3401.0,Rspan.long,E2
1421,32.0,D,9.0,1.0,hill,1,hill,3415.0,Rspan.long,E2
1422,32.0,D,9.0,2.0,dirt,2,dirt,4431.0,Rspan.long,E2
1423,32.0,D,9.0,3.0,card,3,,3375.0,Rspan.long,E2
1424,32.0,D,9.0,4.0,line,4,line,3543.0,Rspan.long,E2
1425,32.0,D,10.0,0.0,chest,0,,4215.0,Rspan.long,E2
1426,32.0,D,10.0,1.0,lane,1,,4471.0,Rspan.long,E2
1427,32.0,D,10.0,2.0,hair,2,hair,4271.0,Rspan.long,E2
1428,32.0,D,10.0,3.0,crown,3,crown,3647.0,Rspan.long,E2
1429,32.0,D,11.0,0.0,shell,0,,3609.0,Rspan.long,E2
1430,32.0,D,11.0,1.0,tree,1,,4127.0,Rspan.long,E2
1431,32.0,D,11.0,2.0,bowl,2,,2839.0,Rspan.long,E2
1432,32.0,D,11.0,3.0,broom,3,,3839.0,Rspan.long,E2
1433,32.0,D,11.0,4.0,test,4,test,4231.0,Rspan.long,E2
1434,32.0,D,11.0,5.0,ground,5,ground,4231.0,Rspan.long,E2
1435,32.0,D,12.0,0.0,deck,0,,4912.0,Rspan.long,E2
1436,32.0,D,12.0,1.0,slice,1,slice,3583.0,Rspan.long,E2
1437,32.0,D,12.0,2.0,rat,2,rat,3879.0,Rspan.long,E2
1438,32.0,D,13.0,0.0,ant,0,ant,4368.0,Rspan.long,E2
1439,32.0,D,13.0,1.0,air,1,air,3999.0,Rspan.long,E2
1440,32.0,D,13.0,2.0,ink,2,,3871.0,Rspan.long,E2
1441,32.0,D,13.0,3.0,cloud,3,cloud,4127.0,Rspan.long,E2
1442,32.0,D,13.0,4.0,seat,4,,4023.0,Rspan.long,E2
1443,32.0,D,13.0,5.0,breath,5,breath,3967.0,Rspan.long,E2
1444,32.0,D,14.0,0.0,spice,0,spice,3977.0,Rspan.long,E2
1445,32.0,D,14.0,1.0,heat,1,heat,4399.0,Rspan.long,E2
1446,32.0,D,14.0,2.0,shape,2,,4975.0,Rspan.long,E2
1447,32.0,D,14.0,3.0,pear,3,,4023.0,Rspan.long,E2
1448,32.0,D,14.0,4.0,guest,4,guest,4159.0,Rspan.long,E2
1449,32.0,D,15.0,0.0,path,0,,3432.0,Rspan.long,E2
1450,32.0,D,15.0,1.0,nest,1,,5047.0,Rspan.long,E2
1451,32.0,D,15.0,2.0,square,2,,3983.0,Rspan.long,E2
1452,32.0,D,15.0,3.0,wood,3,wood,4463.0,Rspan.long,E2
1453,32.0,D,15.0,4.0,beach,4,beach,3887.0,Rspan.long,E2
1454,32.0,S,16.0,0.0,cream,0,cream,3504.0,Rspan.long,E2
1455,32.0,S,16.0,1.0,team,1,team,3455.0,Rspan.long,E2
1456,32.0,S,16.0,2.0,steam,2,steam,4879.0,Rspan.long,E2
1457,32.0,S,17.0,0.0,pie,0,pie,3561.0,Rspan.long,E2
1458,32.0,S,17.0,1.0,fly,1,fly,3207.0,Rspan.long,E2
1459,32.0,S,17.0,2.0,tie,2,,3943.0,Rspan.long,E2
1460,32.0,S,17.0,3.0,sky,3,eye,3703.0,Rspan.long,E2
1461,32.0,S,17.0,4.0,eye,,,3671.0,Rspan.long,E2
1462,32.0,S,18.0,0.0,bone,0,bone,4201.0,Rspan.long,E2
1463,32.0,S,18.0,1.0,phone,1,phone,3423.0,Rspan.long,E2
1464,32.0,S,18.0,2.0,stone,2,stone,3383.0,Rspan.long,E2
1465,32.0,S,19.0,0.0,doll,0,,3440.0,Rspan.long,E2
1466,32.0,S,19.0,1.0,ball,1,,3063.0,Rspan.long,E2
1467,32.0,S,19.0,2.0,shawl,2,,3295.0,Rspan.long,E2
1468,32.0,S,19.0,3.0,hall,3,shawl,3871.0,Rspan.long,E2
1469,32.0,S,19.0,4.0,brawl,4,ball,3711.0,Rspan.long,E2
1470,32.0,S,19.0,5.0,wall,5,brawl,3063.0,Rspan.long,E2
1471,32.0,S,20.0,0.0,boot,0,boot,3929.0,Rspan.long,E2
1472,32.0,S,20.0,1.0,suit,1,suit,3703.0,Rspan.long,E2
1473,32.0,S,20.0,2.0,flute,2,flute,3671.0,Rspan.long,E2
1474,32.0,S,20.0,3.0,loot,3,loot,5583.0,Rspan.long,E2
1475,32.0,S,20.0,4.0,root,4,brute,3543.0,Rspan.long,E2
1476,32.0,S,20.0,5.0,brute,,,3087.0,Rspan.long,E2
1477,32.0,S,21.0,0.0,deer,0,deer,2840.0,Rspan.long,E2
1478,32.0,S,21.0,1.0,sphere,1,sphere,4695.0,Rspan.long,E2
1479,32.0,S,21.0,2.0,ear,2,ear,3775.0,Rspan.long,E2
1480,32.0,S,21.0,3.0,tear,3,tear,3727.0,Rspan.long,E2
1481,32.0,S,22.0,0.0,band,0,band,3416.0,Rspan.long,E2
1482,32.0,S,22.0,1.0,land,1,land,3351.0,Rspan.long,E2
1483,32.0,S,22.0,2.0,stand,2,stand,3526.0,Rspan.long,E2
1484,32.0,S,22.0,3.0,hand,3,hand,4423.0,Rspan.long,E2
1485,32.0,S,23.0,0.0,jar,0,jar,4472.0,Rspan.long,E2
1486,32.0,S,23.0,1.0,bar,1,bar,4199.0,Rspan.long,E2
1487,32.0,S,23.0,2.0,car,2,car,3663.0,Rspan.long,E2
1488,32.0,S,23.0,3.0,scar,3,scar,3839.0,Rspan.long,E2
1489,32.0,S,23.0,4.0,star,4,,3527.0,Rspan.long,E2
1490,32.0,S,24.0,0.0,bread,0,bread,3185.0,Rspan.long,E2
1491,32.0,S,24.0,1.0,head,1,head,3615.0,Rspan.long,E2
1492,32.0,S,24.0,2.0,thread,2,thread,4543.0,Rspan.long,E2
1493,32.0,S,24.0,3.0,bed,3,bed,4447.0,Rspan.long,E2
1494,32.0,S,25.0,0.0,mail,0,mail,3647.0,Rspan.long,E2
1495,32.0,S,25.0,1.0,sail,1,sail,3855.0,Rspan.long,E2
1496,32.0,S,25.0,2.0,trail,2,trail,3343.0,Rspan.long,E2
1497,32.0,S,25.0,3.0,wail,3,wail,4279.0,Rspan.long,E2
1498,32.0,S,25.0,4.0,tail,4,jail,4359.0,Rspan.long,E2
1499,32.0,S,25.0,5.0,jail,,,3455.0,Rspan.long,E2
1500,32.0,S,26.0,0.0,king,0,king,3432.0,Rspan.long,E2
1501,32.0,S,26.0,1.0,ring,1,ring,2951.0,Rspan.long,E2
1502,32.0,S,26.0,2.0,spring,2,spring,3679.0,Rspan.long,E2
1503,32.0,S,26.0,3.0,string,3,string,3431.0,Rspan.long,E2
1504,32.0,S,26.0,4.0,wing,4,wing,3735.0,Rspan.long,E2
1505,32.0,S,27.0,0.0,blouse,0,blouse,3056.0,Rspan.long,E2
1506,32.0,S,27.0,1.0,house,1,house,3191.0,Rspan.long,E2
1507,32.0,S,27.0,2.0,mouse,2,mouse,4503.0,Rspan.long,E2
1508,34.0,P,0.0,0.0,farm,0,farm,,Rspan.long,E2
1509,34.0,P,0.0,1.0,arm,1,arm,,Rspan.long,E2
1510,34.0,P,1.0,0.0,bath,0,bath,,Rspan.long,E2
1511,34.0,P,1.0,1.0,dawn,1,dawn,,Rspan.long,E2
1512,34.0,P,2.0,0.0,earth,0,earth,,Rspan.long,E2
1513,34.0,P,2.0,1.0,peach,1,peach,,Rspan.long,E2
1514,34.0,P,3.0,0.0,hood,0,,,Rspan.long,E2
1515,34.0,P,3.0,1.0,wood,1,wood,,Rspan.long,E2
1516,34.0,S,4.0,0.0,blouse,0,blouse,3087.0,Rspan.long,E2
1517,34.0,S,4.0,1.0,house,1,house,3623.0,Rspan.long,E2
1518,34.0,S,4.0,2.0,mouse,2,mouse,4279.0,Rspan.long,E2
1519,34.0,S,5.0,0.0,band,0,band,3493.0,Rspan.long,E2
1520,34.0,S,5.0,1.0,land,1,land,4055.0,Rspan.long,E2
1521,34.0,S,5.0,2.0,stand,2,,5247.0,Rspan.long,E2
1522,34.0,S,5.0,3.0,hand,3,hand,4479.0,Rspan.long,E2
1523,34.0,S,6.0,0.0,bread,0,bread,4020.0,Rspan.long,E2
1524,34.0,S,6.0,1.0,head,1,head,4031.0,Rspan.long,E2
1525,34.0,S,6.0,2.0,thread,2,,3999.0,Rspan.long,E2
1526,34.0,S,6.0,3.0,bed,,,5639.0,Rspan.long,E2
1527,34.0,S,7.0,0.0,bone,0,bone,5180.0,Rspan.long,E2
1528,34.0,S,7.0,1.0,phone,1,phone,4759.0,Rspan.long,E2
1529,34.0,S,7.0,2.0,stone,2,stne,3551.0,Rspan.long,E2
1530,34.0,S,8.0,0.0,jar,0,jar,6045.0,Rspan.long,E2
1531,34.0,S,8.0,1.0,bar,1,bar,4991.0,Rspan.long,E2
1532,34.0,S,8.0,2.0,car,2,,4111.0,Rspan.long,E2
1533,34.0,S,8.0,3.0,scar,3,star,4591.0,Rspan.long,E2
1534,34.0,S,8.0,4.0,star,,,4439.0,Rspan.long,E2
1535,34.0,S,9.0,0.0,king,0,king,5053.0,Rspan.long,E2
1536,34.0,S,9.0,1.0,ring,1,,4151.0,Rspan.long,E2
1537,34.0,S,9.0,2.0,spring,2,spring,7111.0,Rspan.long,E2
1538,34.0,S,9.0,3.0,string,3,wing,4863.0,Rspan.long,E2
1539,34.0,S,9.0,4.0,wing,,,4015.0,Rspan.long,E2
1540,34.0,S,10.0,0.0,pie,0,pie,4803.0,Rspan.long,E2
1541,34.0,S,10.0,1.0,fly,1,,4247.0,Rspan.long,E2
1542,34.0,S,10.0,2.0,tie,2,tye,4399.0,Rspan.long,E2
1543,34.0,S,10.0,3.0,sky,3,eye,4071.0,Rspan.long,E2
1544,34.0,S,10.0,4.0,eye,,,6175.0,Rspan.long,E2
1545,34.0,S,11.0,0.0,boot,0,boot,5044.0,Rspan.long,E2
1546,34.0,S,11.0,1.0,suit,1,,4375.0,Rspan.long,E2
1547,34.0,S,11.0,2.0,flute,2,,5239.0,Rspan.long,E2
1548,34.0,S,11.0,3.0,loot,3,root,6591.0,Rspan.long,E2
1549,34.0,S,11.0,4.0,root,4,,5287.0,Rspan.long,E2
1550,34.0,S,11.0,5.0,brute,,,5295.0,Rspan.long,E2
1551,34.0,S,12.0,0.0,cream,0,cream,4612.0,Rspan.long,E2
1552,34.0,S,12.0,1.0,team,1,,4743.0,Rspan.long,E2
1553,34.0,S,12.0,2.0,steam,2,steam,5279.0,Rspan.long,E2
1554,34.0,S,13.0,0.0,deer,0,deer,4301.0,Rspan.long,E2
1555,34.0,S,13.0,1.0,sphere,1,sphere,5111.0,Rspan.long,E2
1556,34.0,S,13.0,2.0,ear,2,,4919.0,Rspan.long,E2
1557,34.0,S,13.0,3.0,tear,,,5839.0,Rspan.long,E2
1558,34.0,S,14.0,0.0,mail,0,mail,3732.0,Rspan.long,E2
1559,34.0,S,14.0,1.0,sail,1,sail,4487.0,Rspan.long,E2
1560,34.0,S,14.0,2.0,trail,2,,5207.0,Rspan.long,E2
1561,34.0,S,14.0,3.0,wail,3,,3871.0,Rspan.long,E2
1562,34.0,S,14.0,4.0,tail,4,jail,5735.0,Rspan.long,E2
1563,34.0,S,14.0,5.0,jail,,,3615.0,Rspan.long,E2
1564,34.0,S,15.0,0.0,doll,0,doll,3932.0,Rspan.long,E2
1565,34.0,S,15.0,1.0,ball,1,ball,4263.0,Rspan.long,E2
1566,34.0,S,15.0,2.0,shawl,2,,5767.0,Rspan.long,E2
1567,34.0,S,15.0,3.0,hall,3,brawl,6351.0,Rspan.long,E2
1568,34.0,S,15.0,4.0,brawl,,,4687.0,Rspan.long,E2
1569,34.0,S,15.0,5.0,wall,,,3063.0,Rspan.long,E2
1570,34.0,D,16.0,0.0,ant,0,ant,4260.0,Rspan.long,E2
1571,34.0,D,16.0,1.0,air,1,air,5239.0,Rspan.long,E2
1572,34.0,D,16.0,2.0,ink,2,,5895.0,Rspan.long,E2
1573,34.0,D,16.0,3.0,cloud,3,,5119.0,Rspan.long,E2
1574,34.0,D,16.0,4.0,seat,4,breath,4303.0,Rspan.long,E2
1575,34.0,D,16.0,5.0,breath,,,6559.0,Rspan.long,E2
1576,34.0,D,17.0,0.0,spice,0,spice,3507.0,Rspan.long,E2
1577,34.0,D,17.0,1.0,heat,1,heat,5095.0,Rspan.long,E2
1578,34.0,D,17.0,2.0,shape,2,,5679.0,Rspan.long,E2
1579,34.0,D,17.0,3.0,pear,3,pear,6295.0,Rspan.long,E2
1580,34.0,D,17.0,4.0,guest,4,guest,5119.0,Rspan.long,E2
1581,34.0,D,18.0,0.0,chest,0,chest,4533.0,Rspan.long,E2
1582,34.0,D,18.0,1.0,lane,1,lane,6343.0,Rspan.long,E2
1583,34.0,D,18.0,2.0,hair,2,hair,5294.0,Rspan.long,E2
1584,34.0,D,18.0,3.0,crown,3,crown,4711.0,Rspan.long,E2
1585,34.0,D,19.0,0.0,path,0,path,3668.0,Rspan.long,E2
1586,34.0,D,19.0,1.0,nest,1,nest,5471.0,Rspan.long,E2
1587,34.0,D,19.0,2.0,square,2,,6495.0,Rspan.long,E2
1588,34.0,D,19.0,3.0,wood,3,,4839.0,Rspan.long,E2
1589,34.0,D,19.0,4.0,beach,4,beach,4695.0,Rspan.long,E2
1590,34.0,D,20.0,0.0,deck,0,deck,4796.0,Rspan.long,E2
1591,34.0,D,20.0,1.0,slice,1,slice,4415.0,Rspan.long,E2
1592,34.0,D,20.0,2.0,rat,2,rat,5215.0,Rspan.long,E2
1593,34.0,D,21.0,0.0,beard,0,beard,3468.0,Rspan.long,E2
1594,34.0,D,21.0,1.0,hill,1,hill,3623.0,Rspan.long,E2
1595,34.0,D,21.0,2.0,dirt,2,dirt,4759.0,Rspan.long,E2
1596,34.0,D,21.0,3.0,card,3,line,5983.0,Rspan.long,E2
1597,34.0,D,21.0,4.0,line,,,4599.0,Rspan.long,E2
1598,34.0,D,22.0,0.0,coin,0,coin,6772.0,Rspan.long,E2
1599,34.0,D,22.0,1.0,film,1,film,3871.0,Rspan.long,E2
1600,34.0,D,22.0,2.0,leaf,2,leaf,6199.0,Rspan.long,E2
1601,34.0,D,22.0,3.0,train,3,,5087.0,Rspan.long,E2
1602,34.0,D,22.0,4.0,map,4,art,5983.0,Rspan.long,E2
1603,34.0,D,22.0,5.0,art,,,4231.0,Rspan.long,E2
1604,34.0,D,23.0,0.0,neck,0,neck,5924.0,Rspan.long,E2
1605,34.0,D,23.0,1.0,town,1,,4039.0,Rspan.long,E2
1606,34.0,D,23.0,2.0,hat,2,,5175.0,Rspan.long,E2
1607,34.0,D,23.0,3.0,street,3,street,4919.0,Rspan.long,E2
1608,34.0,D,24.0,0.0,toy,0,toy,3405.0,Rspan.long,E2
1609,34.0,D,24.0,1.0,wreck,1,wreck,4310.0,Rspan.long,E2
1610,34.0,D,24.0,2.0,frown,2,frown,4815.0,Rspan.long,E2
1611,34.0,D,25.0,0.0,mare,0,mare,4796.0,Rspan.long,E2
1612,34.0,D,25.0,1.0,bell,1,bell,4063.0,Rspan.long,E2
1613,34.0,D,25.0,2.0,brain,2,brain,5199.0,Rspan.long,E2
1614,34.0,D,25.0,3.0,beef,3,beef,4295.0,Rspan.long,E2
1615,34.0,D,26.0,0.0,rice,0,rice,5028.0,Rspan.long,E2
1616,34.0,D,26.0,1.0,cat,1,cat,4351.0,Rspan.long,E2
1617,34.0,D,26.0,2.0,trash,2,trash,3927.0,Rspan.long,E2
1618,34.0,D,27.0,0.0,shell,0,shell,3949.0,Rspan.long,E2
1619,34.0,D,27.0,1.0,tree,1,tree,3839.0,Rspan.long,E2
1620,34.0,D,27.0,2.0,bowl,2,bowl,3911.0,Rspan.long,E2
1621,34.0,D,27.0,3.0,broom,3,broom,6751.0,Rspan.long,E2
1622,34.0,D,27.0,4.0,test,4,,5831.0,Rspan.long,E2
1623,34.0,D,27.0,5.0,ground,,,4927.0,Rspan.long,E2
1624,36.0,P,0.0,0.0,farm,0,farm,,Rspan.long,E2
1625,36.0,P,0.0,1.0,arm,1,arm,,Rspan.long,E2
1626,36.0,P,1.0,0.0,hood,0,hood,,Rspan.long,E2
1627,36.0,P,1.0,1.0,wood,1,wood,,Rspan.long,E2
1628,36.0,P,2.0,0.0,bath,0,bath,,Rspan.long,E2
1629,36.0,P,2.0,1.0,dawn,1,dawn,,Rspan.long,E2
1630,36.0,P,3.0,0.0,earth,0,earth,,Rspan.long,E2
1631,36.0,P,3.0,1.0,peach,1,peach,,Rspan.long,E2
1632,36.0,D,4.0,0.0,coin,0,coin,6070.0,Rspan.long,E2
1633,36.0,D,4.0,1.0,film,1,film,5175.0,Rspan.long,E2
1634,36.0,D,4.0,2.0,leaf,2,leaf,5583.0,Rspan.long,E2
1635,36.0,D,4.0,3.0,train,3,map,5863.0,Rspan.long,E2
1636,36.0,D,4.0,4.0,map,4,art,5871.0,Rspan.long,E2
1637,36.0,D,4.0,5.0,art,5,,4910.0,Rspan.long,E2
1638,36.0,D,5.0,0.0,toy,0,toy,4528.0,Rspan.long,E2
1639,36.0,D,5.0,1.0,wreck,1,,5871.0,Rspan.long,E2
1640,36.0,D,5.0,2.0,frown,2,frown,5423.0,Rspan.long,E2
1641,36.0,D,6.0,0.0,rice,0,rice,5599.0,Rspan.long,E2
1642,36.0,D,6.0,1.0,cat,1,,4574.0,Rspan.long,E2
1643,36.0,D,6.0,2.0,trash,2,trash,5695.0,Rspan.long,E2
1644,36.0,D,7.0,0.0,chest,0,,5680.0,Rspan.long,E2
1645,36.0,D,7.0,1.0,lane,1,lane,5631.0,Rspan.long,E2
1646,36.0,D,7.0,2.0,hair,2,,5407.0,Rspan.long,E2
1647,36.0,D,7.0,3.0,crown,3,crown,5111.0,Rspan.long,E2
1648,36.0,D,8.0,0.0,mare,0,mare,4568.0,Rspan.long,E2
1649,36.0,D,8.0,1.0,bell,1,,3759.0,Rspan.long,E2
1650,36.0,D,8.0,2.0,brain,2,brain,5247.0,Rspan.long,E2
1651,36.0,D,8.0,3.0,beef,3,beef,4847.0,Rspan.long,E2
1652,36.0,D,9.0,0.0,path,0,,5144.0,Rspan.long,E2
1653,36.0,D,9.0,1.0,nest,1,,5527.0,Rspan.long,E2
1654,36.0,D,9.0,2.0,square,2,,3943.0,Rspan.long,E2
1655,36.0,D,9.0,3.0,wood,3,beach,4471.0,Rspan.long,E2
1656,36.0,D,9.0,4.0,beach,,,5863.0,Rspan.long,E2
1657,36.0,D,10.0,0.0,neck,0,,4880.0,Rspan.long,E2
1658,36.0,D,10.0,1.0,town,1,,3999.0,Rspan.long,E2
1659,36.0,D,10.0,2.0,hat,2,town,5400.0,Rspan.long,E2
1660,36.0,D,10.0,3.0,street,3,hat,5256.0,Rspan.long,E2
1661,36.0,D,11.0,0.0,spice,0,spice,4511.0,Rspan.long,E2
1662,36.0,D,11.0,1.0,heat,1,heat,5687.0,Rspan.long,E2
1663,36.0,D,11.0,2.0,shape,2,,5671.0,Rspan.long,E2
1664,36.0,D,11.0,3.0,pear,3,,5703.0,Rspan.long,E2
1665,36.0,D,11.0,4.0,guest,4,guest,5991.0,Rspan.long,E2
1666,36.0,D,12.0,0.0,beard,0,beard,4464.0,Rspan.long,E2
1667,36.0,D,12.0,1.0,hill,1,hill,3879.0,Rspan.long,E2
1668,36.0,D,12.0,2.0,dirt,2,,5366.0,Rspan.long,E2
1669,36.0,D,12.0,3.0,card,3,line,5488.0,Rspan.long,E2
1670,36.0,D,12.0,4.0,line,,,5551.0,Rspan.long,E2
1671,36.0,D,13.0,0.0,deck,0,,4800.0,Rspan.long,E2
1672,36.0,D,13.0,1.0,slice,1,slice,4823.0,Rspan.long,E2
1673,36.0,D,13.0,2.0,rat,2,rat,4871.0,Rspan.long,E2
1674,36.0,D,14.0,0.0,ant,0,ant,4344.0,Rspan.long,E2
1675,36.0,D,14.0,1.0,air,1,art,5544.0,Rspan.long,E2
1676,36.0,D,14.0,2.0,ink,2,ink,4896.0,Rspan.long,E2
1677,36.0,D,14.0,3.0,cloud,3,,5767.0,Rspan.long,E2
1678,36.0,D,14.0,4.0,seat,4,seat,4871.0,Rspan.long,E2
1679,36.0,D,14.0,5.0,breath,5,breath,5295.0,Rspan.long,E2
1680,36.0,D,15.0,0.0,shell,0,,3968.0,Rspan.long,E2
1681,36.0,D,15.0,1.0,tree,1,,5519.0,Rspan.long,E2
1682,36.0,D,15.0,2.0,bowl,2,bowl,4311.0,Rspan.long,E2
1683,36.0,D,15.0,3.0,broom,3,test,6479.0,Rspan.long,E2
1684,36.0,D,15.0,4.0,test,4,ground,5423.0,Rspan.long,E2
1685,36.0,D,15.0,5.0,ground,,,5455.0,Rspan.long,E2
1686,36.0,S,16.0,0.0,bone,0,bone,4776.0,Rspan.long,E2
1687,36.0,S,16.0,1.0,phone,1,,4688.0,Rspan.long,E2
1688,36.0,S,16.0,2.0,stone,2,stone,6911.0,Rspan.long,E2
1689,36.0,S,17.0,0.0,bread,0,bread,3913.0,Rspan.long,E2
1690,36.0,S,17.0,1.0,head,1,thread,5392.0,Rspan.long,E2
1691,36.0,S,17.0,2.0,thread,2,,4055.0,Rspan.long,E2
1692,36.0,S,17.0,3.0,bed,3,bed,5711.0,Rspan.long,E2
1693,36.0,S,18.0,0.0,band,0,band,4193.0,Rspan.long,E2
1694,36.0,S,18.0,1.0,land,1,land,4087.0,Rspan.long,E2
1695,36.0,S,18.0,2.0,stand,2,stand,5247.0,Rspan.long,E2
1696,36.0,S,18.0,3.0,hand,3,hand,5687.0,Rspan.long,E2
1697,36.0,S,19.0,0.0,mail,0,mail,4185.0,Rspan.long,E2
1698,36.0,S,19.0,1.0,sail,1,sail,3911.0,Rspan.long,E2
1699,36.0,S,19.0,2.0,trail,2,,4231.0,Rspan.long,E2
1700,36.0,S,19.0,3.0,wail,3,tail,5856.0,Rspan.long,E2
1701,36.0,S,19.0,4.0,tail,4,jail,5288.0,Rspan.long,E2
1702,36.0,S,19.0,5.0,jail,,,4247.0,Rspan.long,E2
1703,36.0,S,20.0,0.0,king,0,,4512.0,Rspan.long,E2
1704,36.0,S,20.0,1.0,ring,1,,3840.0,Rspan.long,E2
1705,36.0,S,20.0,2.0,spring,2,sing,4631.0,Rspan.long,E2
1706,36.0,S,20.0,3.0,string,3,spring,4591.0,Rspan.long,E2
1707,36.0,S,20.0,4.0,wing,4,wing,5359.0,Rspan.long,E2
1708,36.0,S,21.0,0.0,boot,0,boot,4640.0,Rspan.long,E2
1709,36.0,S,21.0,1.0,suit,1,suit,4368.0,Rspan.long,E2
1710,36.0,S,21.0,2.0,flute,2,loot,4512.0,Rspan.long,E2
1711,36.0,S,21.0,3.0,loot,3,brute,5063.0,Rspan.long,E2
1712,36.0,S,21.0,4.0,root,4,,5591.0,Rspan.long,E2
1713,36.0,S,21.0,5.0,brute,,,5263.0,Rspan.long,E2
1714,36.0,S,22.0,0.0,jar,0,jar,4272.0,Rspan.long,E2
1715,36.0,S,22.0,1.0,bar,1,bar,4823.0,Rspan.long,E2
1716,36.0,S,22.0,2.0,car,2,,3168.0,Rspan.long,E2
1717,36.0,S,22.0,3.0,scar,3,star,6127.0,Rspan.long,E2
1718,36.0,S,22.0,4.0,star,,,5575.0,Rspan.long,E2
1719,36.0,S,23.0,0.0,cream,0,cream,3816.0,Rspan.long,E2
1720,36.0,S,23.0,1.0,team,1,,5096.0,Rspan.long,E2
1721,36.0,S,23.0,2.0,steam,2,steam,4383.0,Rspan.long,E2
1722,36.0,S,24.0,0.0,doll,0,ball,4345.0,Rspan.long,E2
1723,36.0,S,24.0,1.0,ball,1,,4047.0,Rspan.long,E2
1724,36.0,S,24.0,2.0,shawl,2,,4455.0,Rspan.long,E2
1725,36.0,S,24.0,3.0,hall,3,brawl,5375.0,Rspan.long,E2
1726,36.0,S,24.0,4.0,brawl,4,fall,5992.0,Rspan.long,E2
1727,36.0,S,24.0,5.0,wall,,,3687.0,Rspan.long,E2
1728,36.0,S,25.0,0.0,deer,0,,3872.0,Rspan.long,E2
1729,36.0,S,25.0,1.0,sphere,1,sphere,5223.0,Rspan.long,E2
1730,36.0,S,25.0,2.0,ear,2,ear,4863.0,Rspan.long,E2
1731,36.0,S,25.0,3.0,tear,3,tear,5280.0,Rspan.long,E2
1732,36.0,S,26.0,0.0,blouse,0,house,3417.0,Rspan.long,E2
1733,36.0,S,26.0,1.0,house,1,blouse,3975.0,Rspan.long,E2
1734,36.0,S,26.0,2.0,mouse,2,mouse,7727.0,Rspan.long,E2
1735,36.0,S,27.0,0.0,pie,0,,4409.0,Rspan.long,E2
1736,36.0,S,27.0,1.0,fly,1,,4319.0,Rspan.long,E2
1737,36.0,S,27.0,2.0,tie,2,tie,4431.0,Rspan.long,E2
1738,36.0,S,27.0,3.0,sky,3,sky,4408.0,Rspan.long,E2
1739,36.0,S,27.0,4.0,eye,4,eye,5215.0,Rspan.long,E2
1740,38.0,P,0.0,0.0,farm,0,farm,,Rspan.long,E2
1741,38.0,P,0.0,1.0,arm,1,arm,,Rspan.long,E2
1742,38.0,P,1.0,0.0,bath,0,bath,,Rspan.long,E2
1743,38.0,P,1.0,1.0,dawn,1,dawn,,Rspan.long,E2
1744,38.0,P,2.0,0.0,hood,0,hood,,Rspan.long,E2
1745,38.0,P,2.0,1.0,wood,1,wood,,Rspan.long,E2
1746,38.0,P,3.0,0.0,earth,0,earth,,Rspan.long,E2
1747,38.0,P,3.0,1.0,peach,1,peach,,Rspan.long,E2
1748,38.0,D,4.0,0.0,chest,0,,4575.0,Rspan.long,E2
1749,38.0,D,4.0,1.0,lane,1,chest,4671.0,Rspan.long,E2
1750,38.0,D,4.0,2.0,hair,2,hair,6167.0,Rspan.long,E2
1751,38.0,D,4.0,3.0,crown,3,crown,4951.0,Rspan.long,E2
1752,38.0,D,5.0,0.0,beard,0,beard,4496.0,Rspan.long,E2
1753,38.0,D,5.0,1.0,hill,1,,4672.0,Rspan.long,E2
1754,38.0,D,5.0,2.0,dirt,2,,4312.0,Rspan.long,E2
1755,38.0,D,5.0,3.0,card,3,card,4263.0,Rspan.long,E2
1756,38.0,D,5.0,4.0,line,4,line,4215.0,Rspan.long,E2
1757,38.0,D,6.0,0.0,mare,0,mare,4288.0,Rspan.long,E2
1758,38.0,D,6.0,1.0,bell,1,brain,3168.0,Rspan.long,E2
1759,38.0,D,6.0,2.0,brain,2,,4120.0,Rspan.long,E2
1760,38.0,D,6.0,3.0,beef,3,beef,4207.0,Rspan.long,E2
1761,38.0,D,7.0,0.0,rice,0,,4598.0,Rspan.long,E2
1762,38.0,D,7.0,1.0,cat,1,cat,4943.0,Rspan.long,E2
1763,38.0,D,7.0,2.0,trash,2,trash,4560.0,Rspan.long,E2
1764,38.0,D,8.0,0.0,toy,0,toy,3833.0,Rspan.long,E2
1765,38.0,D,8.0,1.0,wreck,1,wreak,4615.0,Rspan.long,E2
1766,38.0,D,8.0,2.0,frown,2,frown,4607.0,Rspan.long,E2
1767,38.0,D,9.0,0.0,deck,0,deck,3944.0,Rspan.long,E2
1768,38.0,D,9.0,1.0,slice,1,slice,4111.0,Rspan.long,E2
1769,38.0,D,9.0,2.0,rat,2,rat,3728.0,Rspan.long,E2
1770,38.0,D,10.0,0.0,shell,0,shell,3776.0,Rspan.long,E2
1771,38.0,D,10.0,1.0,tree,1,,4375.0,Rspan.long,E2
1772,38.0,D,10.0,2.0,bowl,2,,3552.0,Rspan.long,E2
1773,38.0,D,10.0,3.0,broom,3,,7928.0,Rspan.long,E2
1774,38.0,D,10.0,4.0,test,4,,5104.0,Rspan.long,E2
1775,38.0,D,10.0,5.0,ground,5,ground,4663.0,Rspan.long,E2
1776,38.0,D,11.0,0.0,neck,0,neck,4304.0,Rspan.long,E2
1777,38.0,D,11.0,1.0,town,1,,3976.0,Rspan.long,E2
1778,38.0,D,11.0,2.0,hat,2,,5071.0,Rspan.long,E2
1779,38.0,D,11.0,3.0,street,3,street,4368.0,Rspan.long,E2
1780,38.0,D,12.0,0.0,coin,0,,6168.0,Rspan.long,E2
1781,38.0,D,12.0,1.0,film,1,,4575.0,Rspan.long,E2
1782,38.0,D,12.0,2.0,leaf,2,train,5583.0,Rspan.long,E2
1783,38.0,D,12.0,3.0,train,3,map,5231.0,Rspan.long,E2
1784,38.0,D,12.0,4.0,map,4,art,4936.0,Rspan.long,E2
1785,38.0,D,12.0,5.0,art,,,4488.0,Rspan.long,E2
1786,38.0,D,13.0,0.0,path,0,,4464.0,Rspan.long,E2
1787,38.0,D,13.0,1.0,nest,1,,5519.0,Rspan.long,E2
1788,38.0,D,13.0,2.0,square,2,,6751.0,Rspan.long,E2
1789,38.0,D,13.0,3.0,wood,3,wood,4527.0,Rspan.long,E2
1790,38.0,D,13.0,4.0,beach,4,beach,4280.0,Rspan.long,E2
1791,38.0,D,14.0,0.0,ant,0,ant,3825.0,Rspan.long,E2
1792,38.0,D,14.0,1.0,air,1,air,4327.0,Rspan.long,E2
1793,38.0,D,14.0,2.0,ink,2,,4935.0,Rspan.long,E2
1794,38.0,D,14.0,3.0,cloud,3,,4824.0,Rspan.long,E2
1795,38.0,D,14.0,4.0,seat,4,breath,4560.0,Rspan.long,E2
1796,38.0,D,14.0,5.0,breath,,,4031.0,Rspan.long,E2
1797,38.0,D,15.0,0.0,spice,0,spice,4208.0,Rspan.long,E2
1798,38.0,D,15.0,1.0,heat,1,heat,4744.0,Rspan.long,E2
1799,38.0,D,15.0,2.0,shape,2,,4663.0,Rspan.long,E2
1800,38.0,D,15.0,3.0,pear,3,guest,4192.0,Rspan.long,E2
1801,38.0,D,15.0,4.0,guest,,,4287.0,Rspan.long,E2
1802,38.0,S,16.0,0.0,boot,0,,3768.0,Rspan.long,E2
1803,38.0,S,16.0,1.0,suit,1,boot,3952.0,Rspan.long,E2
1804,38.0,S,16.0,2.0,flute,2,root,4207.0,Rspan.long,E2
1805,38.0,S,16.0,3.0,loot,3,loot,4103.0,Rspan.long,E2
1806,38.0,S,16.0,4.0,root,4,brute,3967.0,Rspan.long,E2
1807,38.0,S,16.0,5.0,brute,,,3872.0,Rspan.long,E2
1808,38.0,S,17.0,0.0,bone,0,bone,4080.0,Rspan.long,E2
1809,38.0,S,17.0,1.0,phone,1,phone,3743.0,Rspan.long,E2
1810,38.0,S,17.0,2.0,stone,2,stone,4039.0,Rspan.long,E2
1811,38.0,S,18.0,0.0,king,0,king,3624.0,Rspan.long,E2
1812,38.0,S,18.0,1.0,ring,1,ring,3559.0,Rspan.long,E2
1813,38.0,S,18.0,2.0,spring,2,,4791.0,Rspan.long,E2
1814,38.0,S,18.0,3.0,string,3,string,3832.0,Rspan.long,E2
1815,38.0,S,18.0,4.0,wing,4,wing,4504.0,Rspan.long,E2
1816,38.0,S,19.0,0.0,bread,0,bread,3840.0,Rspan.long,E2
1817,38.0,S,19.0,1.0,head,1,thread,4863.0,Rspan.long,E2
1818,38.0,S,19.0,2.0,thread,2,,3879.0,Rspan.long,E2
1819,38.0,S,19.0,3.0,bed,3,bed,4447.0,Rspan.long,E2
1820,38.0,S,20.0,0.0,blouse,0,blouse,3225.0,Rspan.long,E2
1821,38.0,S,20.0,1.0,house,1,house,3303.0,Rspan.long,E2
1822,38.0,S,20.0,2.0,mouse,2,mouse,4327.0,Rspan.long,E2
1823,38.0,S,21.0,0.0,doll,0,doll,3825.0,Rspan.long,E2
1824,38.0,S,21.0,1.0,ball,1,,4431.0,Rspan.long,E2
1825,38.0,S,21.0,2.0,shawl,2,,5654.0,Rspan.long,E2
1826,38.0,S,21.0,3.0,hall,3,,4199.0,Rspan.long,E2
1827,38.0,S,21.0,4.0,brawl,4,brawl,4048.0,Rspan.long,E2
1828,38.0,S,21.0,5.0,wall,5,wall,3455.0,Rspan.long,E2
1829,38.0,S,22.0,0.0,pie,0,pie,3984.0,Rspan.long,E2
1830,38.0,S,22.0,1.0,fly,1,fly,3735.0,Rspan.long,E2
1831,38.0,S,22.0,2.0,tie,2,tie,3952.0,Rspan.long,E2
1832,38.0,S,22.0,3.0,sky,3,eye,4239.0,Rspan.long,E2
1833,38.0,S,22.0,4.0,eye,,,4151.0,Rspan.long,E2
1834,38.0,S,23.0,0.0,mail,0,mail,3856.0,Rspan.long,E2
1835,38.0,S,23.0,1.0,sail,1,sail,3456.0,Rspan.long,E2
1836,38.0,S,23.0,2.0,trail,2,trail,3199.0,Rspan.long,E2
1837,38.0,S,23.0,3.0,wail,3,,4103.0,Rspan.long,E2
1838,38.0,S,23.0,4.0,tail,4,jail,4448.0,Rspan.long,E2
1839,38.0,S,23.0,5.0,jail,,,3319.0,Rspan.long,E2
1840,38.0,S,24.0,0.0,deer,0,deer,2952.0,Rspan.long,E2
1841,38.0,S,24.0,1.0,sphere,1,sphere,3879.0,Rspan.long,E2
1842,38.0,S,24.0,2.0,ear,2,,3967.0,Rspan.long,E2
1843,38.0,S,24.0,3.0,tear,3,tear,3959.0,Rspan.long,E2
1844,38.0,S,25.0,0.0,jar,0,bar,3584.0,Rspan.long,E2
1845,38.0,S,25.0,1.0,bar,1,jar,3927.0,Rspan.long,E2
1846,38.0,S,25.0,2.0,car,2,,3590.0,Rspan.long,E2
1847,38.0,S,25.0,3.0,scar,3,scar,4471.0,Rspan.long,E2
1848,38.0,S,25.0,4.0,star,,,4383.0,Rspan.long,E2
1849,38.0,S,26.0,0.0,cream,0,cream,3376.0,Rspan.long,E2
1850,38.0,S,26.0,1.0,team,1,,3879.0,Rspan.long,E2
1851,38.0,S,26.0,2.0,steam,2,steam,3751.0,Rspan.long,E2
1852,38.0,S,27.0,0.0,band,0,band,3888.0,Rspan.long,E2
1853,38.0,S,27.0,1.0,land,1,stand,3599.0,Rspan.long,E2
1854,38.0,S,27.0,2.0,stand,2,land,4407.0,Rspan.long,E2
1855,38.0,S,27.0,3.0,hand,3,hand,5279.0,Rspan.long,E2
1856,40.0,P,0.0,0.0,earth,0,earth,,Rspan.long,E2
1857,40.0,P,0.0,1.0,peach,1,peach,,Rspan.long,E2
1858,40.0,P,1.0,0.0,hood,0,hood,,Rspan.long,E2
1859,40.0,P,1.0,1.0,wood,1,wood,,Rspan.long,E2
1860,40.0,P,2.0,0.0,bath,0,bath,,Rspan.long,E2
1861,40.0,P,2.0,1.0,dawn,1,dawn,,Rspan.long,E2
1862,40.0,P,3.0,0.0,farm,0,farm,,Rspan.long,E2
1863,40.0,P,3.0,1.0,arm,1,arm,,Rspan.long,E2
1864,40.0,D,4.0,0.0,ant,0,ant,3623.0,Rspan.long,E2
1865,40.0,D,4.0,1.0,air,1,air,3896.0,Rspan.long,E2
1866,40.0,D,4.0,2.0,ink,2,cloud,5040.0,Rspan.long,E2
1867,40.0,D,4.0,3.0,cloud,3,breath,6951.0,Rspan.long,E2
1868,40.0,D,4.0,4.0,seat,,,3952.0,Rspan.long,E2
1869,40.0,D,4.0,5.0,breath,,,4352.0,Rspan.long,E2
1870,40.0,D,5.0,0.0,coin,0,film,4929.0,Rspan.long,E2
1871,40.0,D,5.0,1.0,film,1,camp,4296.0,Rspan.long,E2
1872,40.0,D,5.0,2.0,leaf,2,,5784.0,Rspan.long,E2
1873,40.0,D,5.0,3.0,train,3,,5424.0,Rspan.long,E2
1874,40.0,D,5.0,4.0,map,4,art,4952.0,Rspan.long,E2
1875,40.0,D,5.0,5.0,art,,,5375.0,Rspan.long,E2
1876,40.0,D,6.0,0.0,mare,0,mare,4529.0,Rspan.long,E2
1877,40.0,D,6.0,1.0,bell,1,brain,6423.0,Rspan.long,E2
1878,40.0,D,6.0,2.0,brain,2,bell,7688.0,Rspan.long,E2
1879,40.0,D,6.0,3.0,beef,3,beef,6815.0,Rspan.long,E2
1880,40.0,D,7.0,0.0,neck,0,hare,8157.0,Rspan.long,E2
1881,40.0,D,7.0,1.0,town,1,neck,4687.0,Rspan.long,E2
1882,40.0,D,7.0,2.0,hat,2,bell,5168.0,Rspan.long,E2
1883,40.0,D,7.0,3.0,street,3,hat,4944.0,Rspan.long,E2
1884,40.0,D,8.0,0.0,deck,0,deck,5473.0,Rspan.long,E2
1885,40.0,D,8.0,1.0,slice,1,slice,4742.0,Rspan.long,E2
1886,40.0,D,8.0,2.0,rat,2,rat,5200.0,Rspan.long,E2
1887,40.0,D,9.0,0.0,spice,0,spice,4457.0,Rspan.long,E2
1888,40.0,D,9.0,1.0,heat,1,deck,6230.0,Rspan.long,E2
1889,40.0,D,9.0,2.0,shape,,,11191.0,Rspan.long,E2
1890,40.0,D,9.0,3.0,pear,,,4863.0,Rspan.long,E2
1891,40.0,D,9.0,4.0,guest,,,7423.0,Rspan.long,E2
1892,40.0,D,10.0,0.0,beard,0,beard,3801.0,Rspan.long,E2
1893,40.0,D,10.0,1.0,hill,1,hill,5664.0,Rspan.long,E2
1894,40.0,D,10.0,2.0,dirt,2,dirt,8791.0,Rspan.long,E2
1895,40.0,D,10.0,3.0,card,3,line,8104.0,Rspan.long,E2
1896,40.0,D,10.0,4.0,line,,,8904.0,Rspan.long,E2
1897,40.0,D,11.0,0.0,toy,0,hill,4289.0,Rspan.long,E2
1898,40.0,D,11.0,1.0,wreck,1,wreck,6855.0,Rspan.long,E2
1899,40.0,D,11.0,2.0,frown,2,frown,5840.0,Rspan.long,E2
1900,40.0,D,12.0,0.0,shell,0,shell,3976.0,Rspan.long,E2
1901,40.0,D,12.0,1.0,tree,1,broom,4807.0,Rspan.long,E2
1902,40.0,D,12.0,2.0,bowl,2,,4015.0,Rspan.long,E2
1903,40.0,D,12.0,3.0,broom,3,,5943.0,Rspan.long,E2
1904,40.0,D,12.0,4.0,test,4,ground,5016.0,Rspan.long,E2
1905,40.0,D,12.0,5.0,ground,,,4768.0,Rspan.long,E2
1906,40.0,D,13.0,0.0,path,0,,4345.0,Rspan.long,E2
1907,40.0,D,13.0,1.0,nest,1,wood,5735.0,Rspan.long,E2
1908,40.0,D,13.0,2.0,square,2,square,4959.0,Rspan.long,E2
1909,40.0,D,13.0,3.0,wood,3,,5720.0,Rspan.long,E2
1910,40.0,D,13.0,4.0,beach,4,beach,5072.0,Rspan.long,E2
1911,40.0,D,14.0,0.0,rice,0,,4857.0,Rspan.long,E2
1912,40.0,D,14.0,1.0,cat,1,cat,4887.0,Rspan.long,E2
1913,40.0,D,14.0,2.0,trash,2,trash,5887.0,Rspan.long,E2
1914,40.0,D,15.0,0.0,chest,0,,5809.0,Rspan.long,E2
1915,40.0,D,15.0,1.0,lane,1,,6056.0,Rspan.long,E2
1916,40.0,D,15.0,2.0,hair,2,hare,7959.0,Rspan.long,E2
1917,40.0,D,15.0,3.0,crown,3,crown,5104.0,Rspan.long,E2
1918,40.0,S,16.0,0.0,deer,0,deer,3600.0,Rspan.long,E2
1919,40.0,S,16.0,1.0,sphere,1,,5984.0,Rspan.long,E2
1920,40.0,S,16.0,2.0,ear,2,,4039.0,Rspan.long,E2
1921,40.0,S,16.0,3.0,tear,3,tear,4671.0,Rspan.long,E2
1922,40.0,S,17.0,0.0,band,0,band,4792.0,Rspan.long,E2
