"","X","Subject","TBR","dist_RT","folder","inpos","outpos","resp","task","trialnum","trialtype","triallen","ACC.ser","ACC.item","ACC.possible","ACC.blank","ACC.seqerr","ACC.worderr","ACC.transdist","ACC.transerr","ACC.pli"
"1",8,"1","king",6494,"E9pool",0,0,"king","R.pool350",4,"S",5,TRUE,TRUE,TRUE,FALSE,FALSE,FALSE,0,FALSE,FALSE
"2",9,"1","ring",6242,"E9pool",1,1,"ring","R.pool350",4,"S",5,TRUE,TRUE,TRUE,FALSE,FALSE,FALSE,0,FALSE,FALSE
"3",10,"1","spring",6009,"E9pool",2,2,"spring","R.pool350",4,"S",5,TRUE,TRUE,TRUE,FALSE,FALSE,FALSE,0,FALSE,FALSE
"4",11,"1","string",6385,"E9pool",3,3,"string","R.pool350",4,"S",5,TRUE,TRUE,TRUE,FALSE,FALSE,FALSE,0,FALSE,FALSE
"5",12,"1","wing",6384,"E9pool",4,4,"wing","R.pool350",4,"S",5,TRUE,TRUE,TRUE,FALSE,FALSE,FALSE,0,FALSE,FALSE
"6",13,"1","neck",5840,"E9pool",0,0,"neck","R.pool350",5,"D",4,TRUE,TRUE,TRUE,FALSE,FALSE,FALSE,0,FALSE,FALSE
"7",14,"1","town",4799,"E9pool",1,1,"town","R.pool350",5,"D",4,TRUE,TRUE,TRUE,FALSE,FALSE,FALSE,0,FALSE,FALSE
"8",15,"1","hat",6840,"E9pool",2,2,"hat","R.pool350",5,"D",4,TRUE,TRUE,TRUE,FALSE,FALSE,FALSE,0,FALSE,FALSE
"9",16,"1","street",6295,"E9pool",3,3,"street","R.pool350",5,"D",4,TRUE,TRUE,TRUE,FALSE,FALSE,FALSE,0,FALSE,FALSE
"10",17,"1","rice",6755,"E9pool",0,0,"rice","R.pool350",6,"D",3,TRUE,TRUE,TRUE,FALSE,FALSE,FALSE,0,FALSE,FALSE
"11",18,"1","cat",5795,"E9pool",1,1,"cat","R.pool350",6,"D",3,TRUE,TRUE,TRUE,FALSE,FALSE,FALSE,0,FALSE,FALSE
"12",19,"1","trash",5509,"E9pool",2,2,"trash","R.pool350",6,"D",3,TRUE,TRUE,TRUE,FALSE,FALSE,FALSE,0,FALSE,FALSE
"13",20,"1","bread",6733,"E9pool",0,0,"bread","R.pool350",7,"S",4,TRUE,TRUE,TRUE,FALSE,FALSE,FALSE,0,FALSE,FALSE
"14",21,"1","head",6336,"E9pool",1,1,"head","R.pool350",7,"S",4,TRUE,TRUE,TRUE,FALSE,FALSE,FALSE,0,FALSE,FALSE
"15",22,"1","thread",5818,"E9pool",2,2,"","R.pool350",7,"S",4,FALSE,FALSE,TRUE,TRUE,FALSE,FALSE,NA,NA,FALSE
"16",23,"1","bed",7856,"E9pool",3,3,"bed","R.pool350",7,"S",4,TRUE,TRUE,TRUE,FALSE,FALSE,FALSE,0,FALSE,FALSE
"17",24,"1","doll",6450,"E9pool",0,0,"doll","R.pool350",8,"S",6,TRUE,TRUE,TRUE,FALSE,FALSE,FALSE,0,FALSE,FALSE
"18",25,"1","ball",7904,"E9pool",1,1,"ball","R.pool350",8,"S",6,TRUE,TRUE,TRUE,FALSE,FALSE,FALSE,0,FALSE,FALSE
"19",26,"1","shawl",8850,"E9pool",2,2,"shawl","R.pool350",8,"S",6,TRUE,TRUE,TRUE,FALSE,FALSE,FALSE,0,FALSE,FALSE
"20",27,"1","hall",6910,"E9pool",3,3,"hall","R.pool350",8,"S",6,TRUE,TRUE,TRUE,FALSE,FALSE,FALSE,0,FALSE,FALSE
"21",28,"1","brawl",7152,"E9pool",4,4,"brawl","R.pool350",8,"S",6,TRUE,TRUE,TRUE,FALSE,FALSE,FALSE,0,FALSE,FALSE
"22",29,"1","wall",7058,"E9pool",5,NA,"","R.pool350",8,"S",6,FALSE,FALSE,TRUE,TRUE,FALSE,FALSE,NA,NA,FALSE
"23",30,"1","cream",5639,"E9pool",0,0,"cream","R.pool350",9,"S",3,TRUE,TRUE,TRUE,FALSE,FALSE,FALSE,0,FALSE,FALSE
"24",31,"1","team",6077,"E9pool",1,1,"team","R.pool350",9,"S",3,TRUE,TRUE,TRUE,FALSE,FALSE,FALSE,0,FALSE,FALSE
"25",32,"1","steam",7164,"E9pool",2,2,"steam","R.pool350",9,"S",3,TRUE,TRUE,TRUE,FALSE,FALSE,FALSE,0,FALSE,FALSE
"26",33,"1","path",6095,"E9pool",0,0,"path","R.pool350",10,"D",5,TRUE,TRUE,TRUE,FALSE,FALSE,FALSE,0,FALSE,FALSE
"27",34,"1","nest",5659,"E9pool",1,1,"nest","R.pool350",10,"D",5,TRUE,TRUE,TRUE,FALSE,FALSE,FALSE,0,FALSE,FALSE
"28",35,"1","square",5898,"E9pool",2,2,"square","R.pool350",10,"D",5,TRUE,TRUE,TRUE,FALSE,FALSE,FALSE,0,FALSE,FALSE
"29",36,"1","wood",7333,"E9pool",3,3,"wood","R.pool350",10,"D",5,TRUE,TRUE,TRUE,FALSE,FALSE,FALSE,0,FALSE,FALSE
"30",37,"1","beach",6720,"E9pool",4,4,"beach","R.pool350",10,"D",5,TRUE,TRUE,TRUE,FALSE,FALSE,FALSE,0,FALSE,FALSE
"31",38,"1","coin",6257,"E9pool",0,0,"coin","R.pool350",11,"D",6,TRUE,TRUE,TRUE,FALSE,FALSE,FALSE,0,FALSE,FALSE
"32",39,"1","film",6319,"E9pool",1,1,"film","R.pool350",11,"D",6,TRUE,TRUE,TRUE,FALSE,FALSE,FALSE,0,FALSE,FALSE
"33",40,"1","leaf",5906,"E9pool",2,2,"","R.pool350",11,"D",6,FALSE,FALSE,TRUE,TRUE,FALSE,FALSE,NA,NA,FALSE
"34",41,"1","train",8190,"E9pool",3,3,"train","R.pool350",11,"D",6,TRUE,TRUE,TRUE,FALSE,FALSE,FALSE,0,FALSE,FALSE
"35",42,"1","map",5780,"E9pool",4,NA,"","R.pool350",11,"D",6,FALSE,FALSE,TRUE,TRUE,FALSE,FALSE,NA,NA,FALSE
"36",43,"1","art",6108,"E9pool",5,NA,"","R.pool350",11,"D",6,FALSE,FALSE,TRUE,TRUE,FALSE,FALSE,NA,NA,FALSE
"37",44,"1","bone",6021,"E9pool",0,0,"bone","R.pool350",12,"S",3,TRUE,TRUE,TRUE,FALSE,FALSE,FALSE,0,FALSE,FALSE
"38",45,"1","phone",5220,"E9pool",1,1,"phone","R.pool350",12,"S",3,TRUE,TRUE,TRUE,FALSE,FALSE,FALSE,0,FALSE,FALSE
"39",46,"1","stone",6420,"E9pool",2,2,"stone","R.pool350",12,"S",3,TRUE,TRUE,TRUE,FALSE,FALSE,FALSE,0,FALSE,FALSE
"40",47,"1","chest",5602,"E9pool",0,0,"chest","R.pool350",13,"D",4,TRUE,TRUE,TRUE,FALSE,FALSE,FALSE,0,FALSE,FALSE
"41",48,"1","lane",5306,"E9pool",1,1,"lane","R.pool350",13,"D",4,TRUE,TRUE,TRUE,FALSE,FALSE,FALSE,0,FALSE,FALSE
"42",49,"1","hair",6783,"E9pool",2,2,"hair","R.pool350",13,"D",4,TRUE,TRUE,TRUE,FALSE,FALSE,FALSE,0,FALSE,FALSE
"43",50,"1","crown",5384,"E9pool",3,3,"crown","R.pool350",13,"D",4,TRUE,TRUE,TRUE,FALSE,FALSE,FALSE,0,FALSE,FALSE
"44",51,"1","spice",5272,"E9pool",0,0,"","R.pool350",14,"D",5,FALSE,FALSE,TRUE,TRUE,FALSE,FALSE,NA,NA,FALSE
"45",52,"1","heat",6126,"E9pool",1,1,"","R.pool350",14,"D",5,FALSE,FALSE,TRUE,TRUE,FALSE,FALSE,NA,NA,FALSE
"46",53,"1","shape",6193,"E9pool",2,NA,"","R.pool350",14,"D",5,FALSE,FALSE,TRUE,TRUE,FALSE,FALSE,NA,NA,FALSE
"47",54,"1","pear",6953,"E9pool",3,NA,"","R.pool350",14,"D",5,FALSE,FALSE,TRUE,TRUE,FALSE,FALSE,NA,NA,FALSE
"48",55,"1","guest",6289,"E9pool",4,NA,"","R.pool350",14,"D",5,FALSE,FALSE,TRUE,TRUE,FALSE,FALSE,NA,NA,FALSE
"49",56,"1","deer",5894,"E9pool",0,0,"deer","R.pool350",15,"S",4,TRUE,TRUE,TRUE,FALSE,FALSE,FALSE,0,FALSE,FALSE
"50",57,"1","sphere",5889,"E9pool",1,1,"sphere","R.pool350",15,"S",4,TRUE,TRUE,TRUE,FALSE,FALSE,FALSE,0,FALSE,FALSE
"51",58,"1","ear",7830,"E9pool",2,2,"ear","R.pool350",15,"S",4,TRUE,TRUE,TRUE,FALSE,FALSE,FALSE,0,FALSE,FALSE
"52",59,"1","tear",6523,"E9pool",3,3,"tear","R.pool350",15,"S",4,TRUE,TRUE,TRUE,FALSE,FALSE,FALSE,0,FALSE,FALSE
"53",60,"1","jar",6366,"E9pool",0,0,"jar","R.pool350",16,"S",5,TRUE,TRUE,TRUE,FALSE,FALSE,FALSE,0,FALSE,FALSE
"54",61,"1","bar",6496,"E9pool",1,1,"bar","R.pool350",16,"S",5,TRUE,TRUE,TRUE,FALSE,FALSE,FALSE,0,FALSE,FALSE
"55",62,"1","car",6068,"E9pool",2,2,"car","R.pool350",16,"S",5,TRUE,TRUE,TRUE,FALSE,FALSE,FALSE,0,FALSE,FALSE
"56",63,"1","scar",6105,"E9pool",3,3,"scar","R.pool350",16,"S",5,TRUE,TRUE,TRUE,FALSE,FALSE,FALSE,0,FALSE,FALSE
"57",64,"1","star",8420,"E9pool",4,NA,"","R.pool350",16,"S",5,FALSE,FALSE,TRUE,TRUE,FALSE,FALSE,NA,NA,FALSE
"58",65,"1","ant",5426,"E9pool",0,0,"ant","R.pool350",17,"D",6,TRUE,TRUE,TRUE,FALSE,FALSE,FALSE,0,FALSE,FALSE
"59",66,"1","air",6569,"E9pool",1,1,"air","R.pool350",17,"D",6,TRUE,TRUE,TRUE,FALSE,FALSE,FALSE,0,FALSE,FALSE
"60",67,"1","ink",5658,"E9pool",2,2,"ink","R.pool350",17,"D",6,TRUE,TRUE,TRUE,FALSE,FALSE,FALSE,0,FALSE,FALSE
"61",68,"1","cloud",6815,"E9pool",3,3,"clouds","R.pool350",17,"D",6,FALSE,FALSE,TRUE,FALSE,FALSE,TRUE,NA,NA,FALSE
"62",69,"1","seat",6847,"E9pool",4,4,"street","R.pool350",17,"D",6,FALSE,FALSE,TRUE,FALSE,FALSE,TRUE,NA,NA,TRUE
"63",70,"1","breath",6980,"E9pool",5,5,"breath","R.pool350",17,"D",6,TRUE,TRUE,TRUE,FALSE,FALSE,FALSE,0,FALSE,FALSE
"64",71,"1","toy",6702,"E9pool",0,0,"toy","R.pool350",18,"D",3,TRUE,TRUE,TRUE,FALSE,FALSE,FALSE,0,FALSE,FALSE
"65",72,"1","wreck",5107,"E9pool",1,1,"wreck","R.pool350",18,"D",3,TRUE,TRUE,TRUE,FALSE,FALSE,FALSE,0,FALSE,FALSE
"66",73,"1","frown",5599,"E9pool",2,2,"frown","R.pool350",18,"D",3,TRUE,TRUE,TRUE,FALSE,FALSE,FALSE,0,FALSE,FALSE
"67",74,"1","boot",5343,"E9pool",0,0,"boot","R.pool350",19,"S",6,TRUE,TRUE,TRUE,FALSE,FALSE,FALSE,0,FALSE,FALSE
"68",75,"1","suit",6850,"E9pool",1,1,"suit","R.pool350",19,"S",6,TRUE,TRUE,TRUE,FALSE,FALSE,FALSE,0,FALSE,FALSE
"69",76,"1","flute",5543,"E9pool",2,2,"flute","R.pool350",19,"S",6,TRUE,TRUE,TRUE,FALSE,FALSE,FALSE,0,FALSE,FALSE
"70",77,"1","loot",5675,"E9pool",3,3,"loot","R.pool350",19,"S",6,TRUE,TRUE,TRUE,FALSE,FALSE,FALSE,0,FALSE,FALSE
"71",78,"1","root",7089,"E9pool",4,4,"","R.pool350",19,"S",6,FALSE,FALSE,TRUE,TRUE,FALSE,FALSE,NA,NA,FALSE
"72",79,"1","brute",7539,"E9pool",5,5,"brute","R.pool350",19,"S",6,TRUE,TRUE,TRUE,FALSE,FALSE,FALSE,0,FALSE,FALSE
"73",80,"1","mail",5991,"E9pool",0,0,"mail","R.pool350",20,"S",6,TRUE,TRUE,TRUE,FALSE,FALSE,FALSE,0,FALSE,FALSE
"74",81,"1","sail",6432,"E9pool",1,1,"sail","R.pool350",20,"S",6,TRUE,TRUE,TRUE,FALSE,FALSE,FALSE,0,FALSE,FALSE
"75",82,"1","trail",5975,"E9pool",2,2,"trail","R.pool350",20,"S",6,TRUE,TRUE,TRUE,FALSE,FALSE,FALSE,0,FALSE,FALSE
"76",83,"1","wail",6112,"E9pool",3,3,"wail","R.pool350",20,"S",6,TRUE,TRUE,TRUE,FALSE,FALSE,FALSE,0,FALSE,FALSE
"77",84,"1","tail",5419,"E9pool",4,4,"tail","R.pool350",20,"S",6,TRUE,TRUE,TRUE,FALSE,FALSE,FALSE,0,FALSE,FALSE
"78",85,"1","jail",5484,"E9pool",5,5,"jail","R.pool350",20,"S",6,TRUE,TRUE,TRUE,FALSE,FALSE,FALSE,0,FALSE,FALSE
"79",86,"1","deck",6346,"E9pool",0,0,"deck","R.pool350",21,"D",3,TRUE,TRUE,TRUE,FALSE,FALSE,FALSE,0,FALSE,FALSE
"80",87,"1","slice",8021,"E9pool",1,1,"slice","R.pool350",21,"D",3,TRUE,TRUE,TRUE,FALSE,FALSE,FALSE,0,FALSE,FALSE
"81",88,"1","rat",5906,"E9pool",2,2,"rat","R.pool350",21,"D",3,TRUE,TRUE,TRUE,FALSE,FALSE,FALSE,0,FALSE,FALSE
"82",89,"1","mare",6405,"E9pool",0,0,"mare","R.pool350",22,"D",4,TRUE,TRUE,TRUE,FALSE,FALSE,FALSE,0,FALSE,FALSE
"83",90,"1","bell",5877,"E9pool",1,1,"bell","R.pool350",22,"D",4,TRUE,TRUE,TRUE,FALSE,FALSE,FALSE,0,FALSE,FALSE
"84",91,"1","brain",6570,"E9pool",2,2,"brain","R.pool350",22,"D",4,TRUE,TRUE,TRUE,FALSE,FALSE,FALSE,0,FALSE,FALSE
"85",92,"1","beef",6683,"E9pool",3,3,"beef","R.pool350",22,"D",4,TRUE,TRUE,TRUE,FALSE,FALSE,FALSE,0,FALSE,FALSE
"86",93,"1","pie",6285,"E9pool",0,0,"pie","R.pool350",23,"S",5,TRUE,TRUE,TRUE,FALSE,FALSE,FALSE,0,FALSE,FALSE
"87",94,"1","fly",6184,"E9pool",1,1,"fly","R.pool350",23,"S",5,TRUE,TRUE,TRUE,FALSE,FALSE,FALSE,0,FALSE,FALSE
"88",95,"1","tie",5025,"E9pool",2,2,"tie","R.pool350",23,"S",5,TRUE,TRUE,TRUE,FALSE,FALSE,FALSE,0,FALSE,FALSE
"89",96,"1","sky",6130,"E9pool",3,3,"sky","R.pool350",23,"S",5,TRUE,TRUE,TRUE,FALSE,FALSE,FALSE,0,FALSE,FALSE
"90",97,"1","eye",7453,"E9pool",4,NA,"","R.pool350",23,"S",5,FALSE,FALSE,TRUE,TRUE,FALSE,FALSE,NA,NA,FALSE
"91",98,"1","shell",5109,"E9pool",0,0,"shell","R.pool350",24,"D",6,TRUE,TRUE,TRUE,FALSE,FALSE,FALSE,0,FALSE,FALSE
"92",99,"1","tree",5865,"E9pool",1,1,"tree","R.pool350",24,"D",6,TRUE,TRUE,TRUE,FALSE,FALSE,FALSE,0,FALSE,FALSE
"93",100,"1","bowl",5727,"E9pool",2,2,"bowl","R.pool350",24,"D",6,TRUE,TRUE,TRUE,FALSE,FALSE,FALSE,0,FALSE,FALSE
"94",101,"1","broom",7331,"E9pool",3,3,"broom","R.pool350",24,"D",6,TRUE,TRUE,TRUE,FALSE,FALSE,FALSE,0,FALSE,FALSE
"95",102,"1","test",8292,"E9pool",4,4,"test","R.pool350",24,"D",6,TRUE,TRUE,TRUE,FALSE,FALSE,FALSE,0,FALSE,FALSE
"96",103,"1","ground",5862,"E9pool",5,5,"ground","R.pool350",24,"D",6,TRUE,TRUE,TRUE,FALSE,FALSE,FALSE,0,FALSE,FALSE
"97",104,"1","beard",6003,"E9pool",0,0,"beard","R.pool350",25,"D",5,TRUE,TRUE,TRUE,FALSE,FALSE,FALSE,0,FALSE,FALSE
"98",105,"1","hill",6602,"E9pool",1,1,"hill","R.pool350",25,"D",5,TRUE,TRUE,TRUE,FALSE,FALSE,FALSE,0,FALSE,FALSE
"99",106,"1","dirt",6674,"E9pool",2,2,"dirt","R.pool350",25,"D",5,TRUE,TRUE,TRUE,FALSE,FALSE,FALSE,0,FALSE,FALSE
"100",107,"1","card",6981,"E9pool",3,3,"","R.pool350",25,"D",5,FALSE,TRUE,TRUE,TRUE,TRUE,FALSE,1,TRUE,FALSE
"101",108,"1","line",6775,"E9pool",4,4,"card","R.pool350",25,"D",5,FALSE,FALSE,TRUE,FALSE,FALSE,TRUE,NA,NA,FALSE
"102",109,"1","band",5192,"E9pool",0,0,"band","R.pool350",26,"S",4,TRUE,TRUE,TRUE,FALSE,FALSE,FALSE,0,FALSE,FALSE
"103",110,"1","land",5929,"E9pool",1,1,"land","R.pool350",26,"S",4,TRUE,TRUE,TRUE,FALSE,FALSE,FALSE,0,FALSE,FALSE
"104",111,"1","stand",7308,"E9pool",2,2,"stand","R.pool350",26,"S",4,TRUE,TRUE,TRUE,FALSE,FALSE,FALSE,0,FALSE,FALSE
"105",112,"1","hand",7728,"E9pool",3,3,"hand","R.pool350",26,"S",4,TRUE,TRUE,TRUE,FALSE,FALSE,FALSE,0,FALSE,FALSE
"106",113,"1","blouse",5379,"E9pool",0,0,"","R.pool350",27,"S",3,FALSE,FALSE,TRUE,TRUE,FALSE,FALSE,NA,NA,FALSE
"107",114,"1","house",8046,"E9pool",1,1,"house","R.pool350",27,"S",3,TRUE,TRUE,TRUE,FALSE,FALSE,FALSE,0,FALSE,FALSE
"108",115,"1","mouse",6393,"E9pool",2,2,"mouse","R.pool350",27,"S",3,TRUE,TRUE,TRUE,FALSE,FALSE,FALSE,0,FALSE,FALSE
"109",8,"1","neck",5638,"E7",0,0,"neck","R.scramb",4,"D",4,TRUE,TRUE,TRUE,FALSE,FALSE,FALSE,0,FALSE,FALSE
"110",9,"1","town",5624,"E7",1,1,"town","R.scramb",4,"D",4,TRUE,TRUE,TRUE,FALSE,FALSE,FALSE,0,FALSE,FALSE
"111",10,"1","hat",7232,"E7",2,2,"hat","R.scramb",4,"D",4,TRUE,TRUE,TRUE,FALSE,FALSE,FALSE,0,FALSE,FALSE
"112",11,"1","street",8283,"E7",3,3,"street","R.scramb",4,"D",4,TRUE,TRUE,TRUE,FALSE,FALSE,FALSE,0,FALSE,FALSE
"113",12,"1","mare",4928,"E7",0,0,"mare","R.scramb",5,"D",4,TRUE,TRUE,TRUE,FALSE,FALSE,FALSE,0,FALSE,FALSE
"114",13,"1","bell",4846,"E7",1,1,"","R.scramb",5,"D",4,FALSE,FALSE,TRUE,TRUE,FALSE,FALSE,NA,NA,FALSE
"115",14,"1","brain",6347,"E7",2,2,"brain","R.scramb",5,"D",4,TRUE,TRUE,TRUE,FALSE,FALSE,FALSE,0,FALSE,FALSE
"116",15,"1","beef",7814,"E7",3,3,"beef","R.scramb",5,"D",4,TRUE,TRUE,TRUE,FALSE,FALSE,FALSE,0,FALSE,FALSE
"117",16,"1","shell",5259,"E7",0,0,"","R.scramb",6,"D",6,FALSE,TRUE,TRUE,TRUE,TRUE,FALSE,3,TRUE,FALSE
"118",17,"1","tree",6067,"E7",1,1,"brain","R.scramb",6,"D",6,FALSE,TRUE,TRUE,FALSE,TRUE,FALSE,1,TRUE,TRUE
"119",18,"1","bowl",7086,"E7",2,2,"tree","R.scramb",6,"D",6,FALSE,FALSE,TRUE,FALSE,FALSE,TRUE,NA,NA,FALSE
"120",19,"1","broom",7035,"E7",3,3,"shell","R.scramb",6,"D",6,FALSE,FALSE,TRUE,FALSE,FALSE,TRUE,NA,NA,FALSE
"121",20,"1","test",5398,"E7",4,NA,"","R.scramb",6,"D",6,FALSE,FALSE,TRUE,TRUE,FALSE,FALSE,NA,NA,FALSE
"122",21,"1","ground",6483,"E7",5,NA,"","R.scramb",6,"D",6,FALSE,FALSE,TRUE,TRUE,FALSE,FALSE,NA,NA,FALSE
"123",22,"1","ant",5409,"E7",0,0,"ant","R.scramb",7,"D",6,TRUE,TRUE,TRUE,FALSE,FALSE,FALSE,0,FALSE,FALSE
"124",23,"1","air",5014,"E7",1,1,"air","R.scramb",7,"D",6,TRUE,TRUE,TRUE,FALSE,FALSE,FALSE,0,FALSE,FALSE
"125",24,"1","ink",5854,"E7",2,2,"","R.scramb",7,"D",6,FALSE,FALSE,TRUE,TRUE,FALSE,FALSE,NA,NA,FALSE
"126",25,"1","cloud",6038,"E7",3,3,"sheet","R.scramb",7,"D",6,FALSE,FALSE,TRUE,FALSE,FALSE,TRUE,NA,NA,FALSE
"127",26,"1","seat",5561,"E7",4,4,"breath","R.scramb",7,"D",6,FALSE,FALSE,TRUE,FALSE,FALSE,TRUE,NA,NA,FALSE
"128",27,"1","breath",5790,"E7",5,NA,"","R.scramb",7,"D",6,FALSE,TRUE,TRUE,TRUE,TRUE,FALSE,-1,FALSE,FALSE
"129",28,"1","deck",5033,"E7",0,0,"deck","R.scramb",8,"D",3,TRUE,TRUE,TRUE,FALSE,FALSE,FALSE,0,FALSE,FALSE
"130",29,"1","slice",4540,"E7",1,1,"slice","R.scramb",8,"D",3,TRUE,TRUE,TRUE,FALSE,FALSE,FALSE,0,FALSE,FALSE
"131",30,"1","rat",6052,"E7",2,2,"rat","R.scramb",8,"D",3,TRUE,TRUE,TRUE,FALSE,FALSE,FALSE,0,FALSE,FALSE
"132",31,"1","toy",5361,"E7",0,0,"","R.scramb",9,"D",3,FALSE,FALSE,TRUE,TRUE,FALSE,FALSE,NA,NA,FALSE
"133",32,"1","wreck",6046,"E7",1,1,"wreck","R.scramb",9,"D",3,TRUE,TRUE,TRUE,FALSE,FALSE,FALSE,0,FALSE,FALSE
"134",33,"1","frown",7156,"E7",2,2,"frown","R.scramb",9,"D",3,TRUE,TRUE,TRUE,FALSE,FALSE,FALSE,0,FALSE,FALSE
"135",34,"1","spice",4606,"E7",0,0,"","R.scramb",10,"D",5,FALSE,FALSE,TRUE,TRUE,FALSE,FALSE,NA,NA,FALSE
"136",35,"1","heat",4812,"E7",1,1,"share","R.scramb",10,"D",5,FALSE,FALSE,TRUE,FALSE,FALSE,TRUE,NA,NA,FALSE
"137",36,"1","shape",6172,"E7",2,2,"","R.scramb",10,"D",5,FALSE,FALSE,TRUE,TRUE,FALSE,FALSE,NA,NA,FALSE
"138",37,"1","pear",6332,"E7",3,3,"guest","R.scramb",10,"D",5,FALSE,FALSE,TRUE,FALSE,FALSE,TRUE,NA,NA,FALSE
"139",38,"1","guest",6921,"E7",4,NA,"","R.scramb",10,"D",5,FALSE,TRUE,TRUE,TRUE,TRUE,FALSE,-1,FALSE,FALSE
"140",39,"1","coin",6433,"E7",0,0,"","R.scramb",11,"D",6,FALSE,TRUE,TRUE,TRUE,TRUE,FALSE,1,TRUE,FALSE
"141",40,"1","film",4788,"E7",1,1,"coin","R.scramb",11,"D",6,FALSE,FALSE,TRUE,FALSE,FALSE,TRUE,NA,NA,FALSE
"142",41,"1","leaf",6207,"E7",2,2,"","R.scramb",11,"D",6,FALSE,FALSE,TRUE,TRUE,FALSE,FALSE,NA,NA,FALSE
"143",42,"1","train",7156,"E7",3,3,"art","R.scramb",11,"D",6,FALSE,FALSE,TRUE,FALSE,FALSE,TRUE,NA,NA,FALSE
"144",43,"1","map",7159,"E7",4,NA,"","R.scramb",11,"D",6,FALSE,FALSE,TRUE,TRUE,FALSE,FALSE,NA,NA,FALSE
"145",44,"1","art",7044,"E7",5,NA,"","R.scramb",11,"D",6,FALSE,TRUE,TRUE,TRUE,TRUE,FALSE,-2,FALSE,FALSE
"146",45,"1","rice",6287,"E7",0,0,"rice","R.scramb",12,"D",3,TRUE,TRUE,TRUE,FALSE,FALSE,FALSE,0,FALSE,FALSE
"147",46,"1","cat",5588,"E7",1,1,"cat","R.scramb",12,"D",3,TRUE,TRUE,TRUE,FALSE,FALSE,FALSE,0,FALSE,FALSE
"148",47,"1","trash",4959,"E7",2,2,"trash","R.scramb",12,"D",3,TRUE,TRUE,TRUE,FALSE,FALSE,FALSE,0,FALSE,FALSE
"149",48,"1","path",4324,"E7",0,0,"raft","R.scramb",13,"D",5,FALSE,FALSE,TRUE,FALSE,FALSE,TRUE,NA,NA,FALSE
"150",49,"1","nest",5361,"E7",1,1,"nest","R.scramb",13,"D",5,TRUE,TRUE,TRUE,FALSE,FALSE,FALSE,0,FALSE,FALSE
"151",50,"1","square",5143,"E7",2,2,"wood","R.scramb",13,"D",5,FALSE,TRUE,TRUE,FALSE,TRUE,FALSE,1,TRUE,FALSE
"152",51,"1","wood",11031,"E7",3,3,"square","R.scramb",13,"D",5,FALSE,TRUE,TRUE,FALSE,TRUE,FALSE,-1,FALSE,FALSE
"153",52,"1","beach",7337,"E7",4,4,"beach","R.scramb",13,"D",5,TRUE,TRUE,TRUE,FALSE,FALSE,FALSE,0,FALSE,FALSE
"154",53,"1","chest",4820,"E7",0,0,"","R.scramb",14,"D",4,FALSE,FALSE,TRUE,TRUE,FALSE,FALSE,NA,NA,FALSE
"155",54,"1","lane",6780,"E7",1,1,"lane","R.scramb",14,"D",4,TRUE,TRUE,TRUE,FALSE,FALSE,FALSE,0,FALSE,FALSE
"156",55,"1","hair",6956,"E7",2,2,"hair","R.scramb",14,"D",4,TRUE,TRUE,TRUE,FALSE,FALSE,FALSE,0,FALSE,FALSE
"157",56,"1","crown",5727,"E7",3,3,"crown","R.scramb",14,"D",4,TRUE,TRUE,TRUE,FALSE,FALSE,FALSE,0,FALSE,FALSE
"158",57,"1","beard",5703,"E7",0,0,"beard","R.scramb",15,"D",5,TRUE,TRUE,TRUE,FALSE,FALSE,FALSE,0,FALSE,FALSE
"159",58,"1","hill",5183,"E7",1,1,"hill","R.scramb",15,"D",5,TRUE,TRUE,TRUE,FALSE,FALSE,FALSE,0,FALSE,FALSE
"160",59,"1","dirt",6111,"E7",2,2,"dirt","R.scramb",15,"D",5,TRUE,TRUE,TRUE,FALSE,FALSE,FALSE,0,FALSE,FALSE
"161",60,"1","card",8242,"E7",3,3,"line","R.scramb",15,"D",5,FALSE,FALSE,TRUE,FALSE,FALSE,TRUE,NA,NA,FALSE
"162",61,"1","line",8159,"E7",4,NA,"","R.scramb",15,"D",5,FALSE,TRUE,TRUE,TRUE,TRUE,FALSE,-1,FALSE,FALSE
"163",62,"1","doll",5108,"E7",0,0,"doll","R.scramb",16,"S",6,TRUE,TRUE,TRUE,FALSE,FALSE,FALSE,0,FALSE,FALSE
"164",63,"1","ball",5679,"E7",1,1,"ball","R.scramb",16,"S",6,TRUE,TRUE,TRUE,FALSE,FALSE,FALSE,0,FALSE,FALSE
"165",64,"1","shawl",4684,"E7",2,2,"shawl","R.scramb",16,"S",6,TRUE,TRUE,TRUE,FALSE,FALSE,FALSE,0,FALSE,FALSE
"166",65,"1","hall",8026,"E7",3,3,"hall","R.scramb",16,"S",6,TRUE,TRUE,TRUE,FALSE,FALSE,FALSE,0,FALSE,FALSE
"167",66,"1","brawl",9037,"E7",4,4,"brawl","R.scramb",16,"S",6,TRUE,TRUE,TRUE,FALSE,FALSE,FALSE,0,FALSE,FALSE
"168",67,"1","wall",5183,"E7",5,NA,"","R.scramb",16,"S",6,FALSE,FALSE,TRUE,TRUE,FALSE,FALSE,NA,NA,FALSE
"169",68,"1","cream",5159,"E7",0,0,"cream","R.scramb",17,"S",3,TRUE,TRUE,TRUE,FALSE,FALSE,FALSE,0,FALSE,FALSE
"170",69,"1","team",4901,"E7",1,1,"team","R.scramb",17,"S",3,TRUE,TRUE,TRUE,FALSE,FALSE,FALSE,0,FALSE,FALSE
"171",70,"1","steam",7165,"E7",2,2,"steam","R.scramb",17,"S",3,TRUE,TRUE,TRUE,FALSE,FALSE,FALSE,0,FALSE,FALSE
"172",71,"1","deer",4890,"E7",0,0,"deer","R.scramb",18,"S",4,TRUE,TRUE,TRUE,FALSE,FALSE,FALSE,0,FALSE,FALSE
"173",72,"1","sphere",5367,"E7",1,1,"fear","R.scramb",18,"S",4,FALSE,FALSE,TRUE,FALSE,FALSE,TRUE,NA,NA,FALSE
"174",73,"1","ear",5045,"E7",2,2,"ear","R.scramb",18,"S",4,TRUE,TRUE,TRUE,FALSE,FALSE,FALSE,0,FALSE,FALSE
"175",74,"1","tear",6986,"E7",3,3,"tear","R.scramb",18,"S",4,TRUE,TRUE,TRUE,FALSE,FALSE,FALSE,0,FALSE,FALSE
"176",75,"1","king",4669,"E7",0,0,"king","R.scramb",19,"S",5,TRUE,TRUE,TRUE,FALSE,FALSE,FALSE,0,FALSE,FALSE
"177",76,"1","ring",6175,"E7",1,1,"ring","R.scramb",19,"S",5,TRUE,TRUE,TRUE,FALSE,FALSE,FALSE,0,FALSE,FALSE
"178",77,"1","spring",5936,"E7",2,2,"","R.scramb",19,"S",5,FALSE,FALSE,TRUE,TRUE,FALSE,FALSE,NA,NA,FALSE
"179",78,"1","string",5016,"E7",3,3,"string","R.scramb",19,"S",5,TRUE,TRUE,TRUE,FALSE,FALSE,FALSE,0,FALSE,FALSE
"180",79,"1","wing",8944,"E7",4,4,"","R.scramb",19,"S",5,FALSE,FALSE,TRUE,TRUE,FALSE,FALSE,NA,NA,FALSE
"181",80,"1","boot",6405,"E7",0,0,"boot","R.scramb",20,"S",6,TRUE,TRUE,TRUE,FALSE,FALSE,FALSE,0,FALSE,FALSE
"182",81,"1","suit",6138,"E7",1,1,"suit","R.scramb",20,"S",6,TRUE,TRUE,TRUE,FALSE,FALSE,FALSE,0,FALSE,FALSE
"183",82,"1","flute",5954,"E7",2,2,"flute","R.scramb",20,"S",6,TRUE,TRUE,TRUE,FALSE,FALSE,FALSE,0,FALSE,FALSE
"184",83,"1","loot",6605,"E7",3,3,"loot","R.scramb",20,"S",6,TRUE,TRUE,TRUE,FALSE,FALSE,FALSE,0,FALSE,FALSE
"185",84,"1","root",9386,"E7",4,NA,"","R.scramb",20,"S",6,FALSE,FALSE,TRUE,TRUE,FALSE,FALSE,NA,NA,FALSE
"186",85,"1","brute",6445,"E7",5,NA,"","R.scramb",20,"S",6,FALSE,FALSE,TRUE,TRUE,FALSE,FALSE,NA,NA,FALSE
"187",86,"1","bread",4248,"E7",0,0,"bread","R.scramb",21,"S",4,TRUE,TRUE,TRUE,FALSE,FALSE,FALSE,0,FALSE,FALSE
"188",87,"1","head",4541,"E7",1,1,"thread","R.scramb",21,"S",4,FALSE,FALSE,TRUE,FALSE,FALSE,TRUE,NA,NA,FALSE
"189",88,"1","thread",6117,"E7",2,2,"bed","R.scramb",21,"S",4,FALSE,TRUE,TRUE,FALSE,TRUE,FALSE,-1,FALSE,FALSE
"190",89,"1","bed",5432,"E7",3,NA,"","R.scramb",21,"S",4,FALSE,TRUE,TRUE,TRUE,TRUE,FALSE,-1,FALSE,FALSE
"191",90,"1","mail",7208,"E7",0,0,"trail","R.scramb",22,"S",6,FALSE,FALSE,TRUE,FALSE,FALSE,TRUE,NA,NA,FALSE
"192",91,"1","sail",7613,"E7",1,1,"rail","R.scramb",22,"S",6,FALSE,FALSE,TRUE,FALSE,FALSE,TRUE,NA,NA,FALSE
"193",92,"1","trail",5141,"E7",2,2,"tail","R.scramb",22,"S",6,FALSE,TRUE,TRUE,FALSE,TRUE,FALSE,-2,FALSE,FALSE
"194",93,"1","wail",6197,"E7",3,NA,"","R.scramb",22,"S",6,FALSE,FALSE,TRUE,TRUE,FALSE,FALSE,NA,NA,FALSE
"195",94,"1","tail",5864,"E7",4,NA,"","R.scramb",22,"S",6,FALSE,TRUE,TRUE,TRUE,TRUE,FALSE,-2,FALSE,FALSE
"196",95,"1","jail",6592,"E7",5,NA,"","R.scramb",22,"S",6,FALSE,FALSE,TRUE,TRUE,FALSE,FALSE,NA,NA,FALSE
"197",96,"1","bone",4848,"E7",0,0,"bone","R.scramb",23,"S",3,TRUE,TRUE,TRUE,FALSE,FALSE,FALSE,0,FALSE,FALSE
"198",97,"1","phone",5285,"E7",1,1,"phone","R.scramb",23,"S",3,TRUE,TRUE,TRUE,FALSE,FALSE,FALSE,0,FALSE,FALSE
"199",98,"1","stone",6379,"E7",2,2,"stone","R.scramb",23,"S",3,TRUE,TRUE,TRUE,FALSE,FALSE,FALSE,0,FALSE,FALSE
"200",99,"1","band",4134,"E7",0,0,"land","R.scramb",24,"S",4,FALSE,TRUE,TRUE,FALSE,TRUE,FALSE,1,TRUE,FALSE
"201",100,"1","land",5566,"E7",1,1,"band","R.scramb",24,"S",4,FALSE,TRUE,TRUE,FALSE,TRUE,FALSE,-1,FALSE,FALSE
"202",101,"1","stand",4987,"E7",2,2,"stand","R.scramb",24,"S",4,TRUE,TRUE,TRUE,FALSE,FALSE,FALSE,0,FALSE,FALSE
"203",102,"1","hand",6686,"E7",3,3,"hand","R.scramb",24,"S",4,TRUE,TRUE,TRUE,FALSE,FALSE,FALSE,0,FALSE,FALSE
"204",103,"1","jar",5219,"E7",0,0,"jar","R.scramb",25,"S",5,TRUE,TRUE,TRUE,FALSE,FALSE,FALSE,0,FALSE,FALSE
"205",104,"1","bar",4395,"E7",1,1,"bar","R.scramb",25,"S",5,TRUE,TRUE,TRUE,FALSE,FALSE,FALSE,0,FALSE,FALSE
"206",105,"1","car",4878,"E7",2,2,"scar","R.scramb",25,"S",5,FALSE,FALSE,TRUE,FALSE,FALSE,TRUE,NA,NA,FALSE
"207",106,"1","scar",6960,"E7",3,3,"star","R.scramb",25,"S",5,FALSE,TRUE,TRUE,FALSE,TRUE,FALSE,-1,FALSE,FALSE
"208",107,"1","star",7790,"E7",4,NA,"","R.scramb",25,"S",5,FALSE,TRUE,TRUE,TRUE,TRUE,FALSE,-1,FALSE,FALSE
"209",108,"1","pie",4912,"E7",0,0,"pie","R.scramb",26,"S",5,TRUE,TRUE,TRUE,FALSE,FALSE,FALSE,0,FALSE,FALSE
"210",109,"1","fly",8587,"E7",1,1,"fly","R.scramb",26,"S",5,TRUE,TRUE,TRUE,FALSE,FALSE,FALSE,0,FALSE,FALSE
"211",110,"1","tie",6118,"E7",2,2,"tie","R.scramb",26,"S",5,TRUE,TRUE,TRUE,FALSE,FALSE,FALSE,0,FALSE,FALSE
"212",111,"1","sky",7000,"E7",3,3,"sky","R.scramb",26,"S",5,TRUE,TRUE,TRUE,FALSE,FALSE,FALSE,0,FALSE,FALSE
"213",112,"1","eye",7206,"E7",4,4,"eye","R.scramb",26,"S",5,TRUE,TRUE,TRUE,FALSE,FALSE,FALSE,0,FALSE,FALSE
"214",113,"1","blouse",4596,"E7",0,0,"blouse","R.scramb",27,"S",3,TRUE,TRUE,TRUE,FALSE,FALSE,FALSE,0,FALSE,FALSE
"215",114,"1","house",4526,"E7",1,1,"house","R.scramb",27,"S",3,TRUE,TRUE,TRUE,FALSE,FALSE,FALSE,0,FALSE,FALSE
"216",115,"1","mouse",4787,"E7",2,2,"mouse","R.scramb",27,"S",3,TRUE,TRUE,TRUE,FALSE,FALSE,FALSE,0,FALSE,FALSE
"217",472,"2","neck",8639,"E9pool",0,0,"earth","R.pool350",4,"D",4,FALSE,FALSE,TRUE,FALSE,FALSE,TRUE,NA,NA,FALSE
"218",473,"2","town",6099,"E9pool",1,1,"dog","R.pool350",4,"D",4,FALSE,FALSE,TRUE,FALSE,FALSE,TRUE,NA,NA,FALSE
"219",474,"2","hat",5358,"E9pool",2,2,"money","R.pool350",4,"D",4,FALSE,FALSE,TRUE,FALSE,FALSE,TRUE,NA,NA,FALSE
"220",475,"2","street",7010,"E9pool",3,3,"memoirs","R.pool350",4,"D",4,FALSE,FALSE,TRUE,FALSE,FALSE,TRUE,NA,NA,FALSE
"221",1660,"2","",NA,"E9pool",NA,4,"","R.pool350",4,"D",4,FALSE,FALSE,FALSE,FALSE,FALSE,TRUE,NA,NA,FALSE
"222",476,"2","doll",7471,"E9pool",0,0,"shawl","R.pool350",5,"S",6,FALSE,FALSE,TRUE,FALSE,FALSE,TRUE,NA,NA,FALSE
"223",477,"2","ball",8915,"E9pool",1,1,"hall","R.pool350",5,"S",6,FALSE,FALSE,TRUE,FALSE,FALSE,TRUE,NA,NA,FALSE
"224",478,"2","shawl",5908,"E9pool",2,2,"brawl","R.pool350",5,"S",6,FALSE,TRUE,TRUE,FALSE,TRUE,FALSE,-2,FALSE,FALSE
"225",479,"2","hall",8352,"E9pool",3,3,"wall","R.pool350",5,"S",6,FALSE,TRUE,TRUE,FALSE,TRUE,FALSE,-2,FALSE,FALSE
"226",480,"2","brawl",7376,"E9pool",4,4,"","R.pool350",5,"S",6,FALSE,TRUE,TRUE,TRUE,TRUE,FALSE,-2,FALSE,FALSE
"227",481,"2","wall",7720,"E9pool",5,NA,"","R.pool350",5,"S",6,FALSE,TRUE,TRUE,TRUE,TRUE,FALSE,-2,FALSE,FALSE
"228",482,"2","bread",7548,"E9pool",0,0,"thread","R.pool350",6,"S",4,FALSE,FALSE,TRUE,FALSE,FALSE,TRUE,NA,NA,FALSE
"229",483,"2","head",8325,"E9pool",1,1,"head","R.pool350",6,"S",4,TRUE,TRUE,TRUE,FALSE,FALSE,FALSE,0,FALSE,FALSE
"230",484,"2","thread",7142,"E9pool",2,2,"bed","R.pool350",6,"S",4,FALSE,TRUE,TRUE,FALSE,TRUE,FALSE,-2,FALSE,FALSE
"231",485,"2","bed",8848,"E9pool",3,NA,"","R.pool350",6,"S",4,FALSE,TRUE,TRUE,TRUE,TRUE,FALSE,-1,FALSE,FALSE
"232",486,"2","rice",6748,"E9pool",0,0,"rice","R.pool350",7,"D",3,TRUE,TRUE,TRUE,FALSE,FALSE,FALSE,0,FALSE,FALSE
"233",487,"2","cat",6446,"E9pool",1,1,"cat","R.pool350",7,"D",3,TRUE,TRUE,TRUE,FALSE,FALSE,FALSE,0,FALSE,FALSE
"234",488,"2","trash",6700,"E9pool",2,2,"trash","R.pool350",7,"D",3,TRUE,TRUE,TRUE,FALSE,FALSE,FALSE,0,FALSE,FALSE
"235",1645,"2","",NA,"E9pool",NA,3,"","R.pool350",7,"D",3,FALSE,FALSE,FALSE,FALSE,FALSE,TRUE,NA,NA,FALSE
"236",489,"2","king",5729,"E9pool",0,0,"king","R.pool350",8,"S",5,TRUE,TRUE,TRUE,FALSE,FALSE,FALSE,0,FALSE,FALSE
"237",490,"2","ring",6014,"E9pool",1,1,"wing","R.pool350",8,"S",5,FALSE,TRUE,TRUE,FALSE,TRUE,FALSE,2,TRUE,FALSE
"238",491,"2","spring",5486,"E9pool",2,2,"spring","R.pool350",8,"S",5,TRUE,TRUE,TRUE,FALSE,FALSE,FALSE,0,FALSE,FALSE
"239",492,"2","string",7371,"E9pool",3,3,"ring","R.pool350",8,"S",5,FALSE,FALSE,TRUE,FALSE,FALSE,TRUE,NA,NA,FALSE
"240",493,"2","wing",7707,"E9pool",4,4,"","R.pool350",8,"S",5,FALSE,TRUE,TRUE,TRUE,TRUE,FALSE,-3,FALSE,FALSE
"241",494,"2","blouse",6764,"E9pool",0,0,"blouse","R.pool350",9,"S",3,TRUE,TRUE,TRUE,FALSE,FALSE,FALSE,0,FALSE,FALSE
"242",495,"2","house",7493,"E9pool",1,1,"house","R.pool350",9,"S",3,TRUE,TRUE,TRUE,FALSE,FALSE,FALSE,0,FALSE,FALSE
"243",496,"2","mouse",5952,"E9pool",2,2,"mouse","R.pool350",9,"S",3,TRUE,TRUE,TRUE,FALSE,FALSE,FALSE,0,FALSE,FALSE
"244",1646,"2","",NA,"E9pool",NA,3,"","R.pool350",9,"S",3,FALSE,FALSE,FALSE,FALSE,FALSE,TRUE,NA,NA,FALSE
"245",497,"2","coin",7508,"E9pool",0,0,"leaf","R.pool350",10,"D",6,FALSE,TRUE,TRUE,FALSE,TRUE,FALSE,2,TRUE,FALSE
"246",498,"2","film",6527,"E9pool",1,1,"film","R.pool350",10,"D",6,TRUE,TRUE,TRUE,FALSE,FALSE,FALSE,0,FALSE,FALSE
"247",499,"2","leaf",5594,"E9pool",2,2,"coin","R.pool350",10,"D",6,FALSE,TRUE,TRUE,FALSE,TRUE,FALSE,-2,FALSE,FALSE
"248",500,"2","train",7306,"E9pool",3,3,"den","R.pool350",10,"D",6,FALSE,FALSE,TRUE,FALSE,FALSE,TRUE,NA,NA,FALSE
"249",501,"2","map",8821,"E9pool",4,4,"","R.pool350",10,"D",6,FALSE,FALSE,TRUE,TRUE,FALSE,FALSE,NA,NA,FALSE
"250",502,"2","art",6514,"E9pool",5,NA,"","R.pool350",10,"D",6,FALSE,FALSE,TRUE,TRUE,FALSE,FALSE,NA,NA,FALSE
"251",503,"2","path",9104,"E9pool",0,0,"beach","R.pool350",11,"D",5,FALSE,FALSE,TRUE,FALSE,FALSE,TRUE,NA,NA,FALSE
"252",504,"2","nest",6489,"E9pool",1,1,"house","R.pool350",11,"D",5,FALSE,FALSE,TRUE,FALSE,FALSE,TRUE,NA,NA,TRUE
"253",505,"2","square",5893,"E9pool",2,2,"","R.pool350",11,"D",5,FALSE,FALSE,TRUE,TRUE,FALSE,FALSE,NA,NA,FALSE
"254",506,"2","wood",5330,"E9pool",3,3,"","R.pool350",11,"D",5,FALSE,FALSE,TRUE,TRUE,FALSE,FALSE,NA,NA,FALSE
"255",507,"2","beach",8478,"E9pool",4,4,"","R.pool350",11,"D",5,FALSE,TRUE,TRUE,TRUE,TRUE,FALSE,-4,FALSE,FALSE
"256",508,"2","deer",6859,"E9pool",0,0,"deer","R.pool350",12,"S",4,TRUE,TRUE,TRUE,FALSE,FALSE,FALSE,0,FALSE,FALSE
"257",509,"2","sphere",5536,"E9pool",1,1,"hear","R.pool350",12,"S",4,FALSE,FALSE,TRUE,FALSE,FALSE,TRUE,NA,NA,FALSE
"258",510,"2","ear",5883,"E9pool",2,2,"ear","R.pool350",12,"S",4,TRUE,TRUE,TRUE,FALSE,FALSE,FALSE,0,FALSE,FALSE
"259",511,"2","tear",6296,"E9pool",3,3,"tear","R.pool350",12,"S",4,TRUE,TRUE,TRUE,FALSE,FALSE,FALSE,0,FALSE,FALSE
"260",1661,"2","",NA,"E9pool",NA,4,"","R.pool350",12,"S",4,FALSE,FALSE,FALSE,FALSE,FALSE,TRUE,NA,NA,FALSE
"261",512,"2","chest",6865,"E9pool",0,0,"chest","R.pool350",13,"D",4,TRUE,TRUE,TRUE,FALSE,FALSE,FALSE,0,FALSE,FALSE
"262",513,"2","lane",5918,"E9pool",1,1,"lane","R.pool350",13,"D",4,TRUE,TRUE,TRUE,FALSE,FALSE,FALSE,0,FALSE,FALSE
"263",514,"2","hair",5577,"E9pool",2,2,"","R.pool350",13,"D",4,FALSE,FALSE,TRUE,TRUE,FALSE,FALSE,NA,NA,FALSE
"264",515,"2","crown",5875,"E9pool",3,NA,"","R.pool350",13,"D",4,FALSE,FALSE,TRUE,TRUE,FALSE,FALSE,NA,NA,FALSE
"265",516,"2","toy",7352,"E9pool",0,0,"wreck","R.pool350",14,"D",3,FALSE,FALSE,TRUE,FALSE,FALSE,TRUE,NA,NA,FALSE
"266",517,"2","wreck",6160,"E9pool",1,1,"frown","R.pool350",14,"D",3,FALSE,TRUE,TRUE,FALSE,TRUE,FALSE,-1,FALSE,FALSE
"267",518,"2","frown",6858,"E9pool",2,2,"","R.pool350",14,"D",3,FALSE,TRUE,TRUE,TRUE,TRUE,FALSE,-1,FALSE,FALSE
"268",519,"2","cream",11577,"E9pool",0,0,"cream","R.pool350",15,"S",3,TRUE,TRUE,TRUE,FALSE,FALSE,FALSE,0,FALSE,FALSE
"269",520,"2","team",6981,"E9pool",1,1,"team","R.pool350",15,"S",3,TRUE,TRUE,TRUE,FALSE,FALSE,FALSE,0,FALSE,FALSE
"270",521,"2","steam",6461,"E9pool",2,2,"steam","R.pool350",15,"S",3,TRUE,TRUE,TRUE,FALSE,FALSE,FALSE,0,FALSE,FALSE
"271",1647,"2","",NA,"E9pool",NA,3,"","R.pool350",15,"S",3,FALSE,FALSE,FALSE,FALSE,FALSE,TRUE,NA,NA,FALSE
"272",522,"2","spice",6998,"E9pool",0,0,"spice","R.pool350",16,"D",5,TRUE,TRUE,TRUE,FALSE,FALSE,FALSE,0,FALSE,FALSE
"273",523,"2","heat",5286,"E9pool",1,1,"heat","R.pool350",16,"D",5,TRUE,TRUE,TRUE,FALSE,FALSE,FALSE,0,FALSE,FALSE
"274",524,"2","shape",4683,"E9pool",2,2,"","R.pool350",16,"D",5,FALSE,FALSE,TRUE,TRUE,FALSE,FALSE,NA,NA,FALSE
"275",525,"2","pear",6049,"E9pool",3,NA,"","R.pool350",16,"D",5,FALSE,FALSE,TRUE,TRUE,FALSE,FALSE,NA,NA,FALSE
"276",526,"2","guest",8423,"E9pool",4,NA,"","R.pool350",16,"D",5,FALSE,FALSE,TRUE,TRUE,FALSE,FALSE,NA,NA,FALSE
"277",527,"2","boot",9353,"E9pool",0,0,"boot","R.pool350",17,"S",6,TRUE,TRUE,TRUE,FALSE,FALSE,FALSE,0,FALSE,FALSE
"278",528,"2","suit",6423,"E9pool",1,1,"hoot","R.pool350",17,"S",6,FALSE,FALSE,TRUE,FALSE,FALSE,TRUE,NA,NA,FALSE
"279",529,"2","flute",5862,"E9pool",2,2,"loot","R.pool350",17,"S",6,FALSE,FALSE,TRUE,FALSE,FALSE,TRUE,NA,NA,FALSE
"280",530,"2","loot",8676,"E9pool",3,3,"brute","R.pool350",17,"S",6,FALSE,TRUE,TRUE,FALSE,TRUE,FALSE,-1,FALSE,FALSE
"281",531,"2","root",6399,"E9pool",4,4,"","R.pool350",17,"S",6,FALSE,FALSE,TRUE,TRUE,FALSE,FALSE,NA,NA,FALSE
"282",532,"2","brute",6911,"E9pool",5,NA,"","R.pool350",17,"S",6,FALSE,TRUE,TRUE,TRUE,TRUE,FALSE,-2,FALSE,FALSE
"283",533,"2","ant",7238,"E9pool",0,0,"air","R.pool350",18,"D",6,FALSE,FALSE,TRUE,FALSE,FALSE,TRUE,NA,NA,FALSE
"284",534,"2","air",5443,"E9pool",1,1,"heat","R.pool350",18,"D",6,FALSE,TRUE,TRUE,FALSE,TRUE,FALSE,-1,FALSE,TRUE
"285",535,"2","ink",6882,"E9pool",2,2,"breath","R.pool350",18,"D",6,FALSE,FALSE,TRUE,FALSE,FALSE,TRUE,NA,NA,FALSE
"286",536,"2","cloud",6423,"E9pool",3,3,"","R.pool350",18,"D",6,FALSE,FALSE,TRUE,TRUE,FALSE,FALSE,NA,NA,FALSE
"287",537,"2","seat",6429,"E9pool",4,NA,"","R.pool350",18,"D",6,FALSE,FALSE,TRUE,TRUE,FALSE,FALSE,NA,NA,FALSE
"288",538,"2","breath",7500,"E9pool",5,NA,"","R.pool350",18,"D",6,FALSE,TRUE,TRUE,TRUE,TRUE,FALSE,-3,FALSE,FALSE
"289",539,"2","jar",7259,"E9pool",0,0,"jar","R.pool350",19,"S",5,TRUE,TRUE,TRUE,FALSE,FALSE,FALSE,0,FALSE,FALSE
"290",540,"2","bar",5391,"E9pool",1,1,"bar","R.pool350",19,"S",5,TRUE,TRUE,TRUE,FALSE,FALSE,FALSE,0,FALSE,FALSE
"291",541,"2","car",6120,"E9pool",2,2,"","R.pool350",19,"S",5,FALSE,FALSE,TRUE,TRUE,FALSE,FALSE,NA,NA,FALSE
"292",542,"2","scar",6860,"E9pool",3,NA,"","R.pool350",19,"S",5,FALSE,FALSE,TRUE,TRUE,FALSE,FALSE,NA,NA,FALSE
"293",543,"2","star",7273,"E9pool",4,NA,"","R.pool350",19,"S",5,FALSE,FALSE,TRUE,TRUE,FALSE,FALSE,NA,NA,FALSE
"294",544,"2","mail",6606,"E9pool",0,0,"mail","R.pool350",20,"S",6,TRUE,TRUE,TRUE,FALSE,FALSE,FALSE,0,FALSE,FALSE
"295",545,"2","sail",6573,"E9pool",1,1,"sail","R.pool350",20,"S",6,TRUE,TRUE,TRUE,FALSE,FALSE,FALSE,0,FALSE,FALSE
"296",546,"2","trail",6206,"E9pool",2,2,"wail","R.pool350",20,"S",6,FALSE,TRUE,TRUE,FALSE,TRUE,FALSE,1,TRUE,FALSE
"297",547,"2","wail",7269,"E9pool",3,3,"trail","R.pool350",20,"S",6,FALSE,TRUE,TRUE,FALSE,TRUE,FALSE,-1,FALSE,FALSE
"298",548,"2","tail",7057,"E9pool",4,4,"","R.pool350",20,"S",6,FALSE,FALSE,TRUE,TRUE,FALSE,FALSE,NA,NA,FALSE
"299",549,"2","jail",9366,"E9pool",5,NA,"","R.pool350",20,"S",6,FALSE,FALSE,TRUE,TRUE,FALSE,FALSE,NA,NA,FALSE
"300",550,"2","deck",8986,"E9pool",0,0,"","R.pool350",21,"D",3,FALSE,FALSE,TRUE,TRUE,FALSE,FALSE,NA,NA,FALSE
"301",551,"2","slice",6488,"E9pool",1,NA,"","R.pool350",21,"D",3,FALSE,FALSE,TRUE,TRUE,FALSE,FALSE,NA,NA,FALSE
"302",552,"2","rat",6716,"E9pool",2,NA,"","R.pool350",21,"D",3,FALSE,FALSE,TRUE,TRUE,FALSE,FALSE,NA,NA,FALSE
"303",553,"2","shell",7218,"E9pool",0,0,"tree","R.pool350",22,"D",6,FALSE,FALSE,TRUE,FALSE,FALSE,TRUE,NA,NA,FALSE
"304",554,"2","tree",6016,"E9pool",1,1,"broom","R.pool350",22,"D",6,FALSE,TRUE,TRUE,FALSE,TRUE,FALSE,-1,FALSE,FALSE
"305",555,"2","bowl",5239,"E9pool",2,2,"ground","R.pool350",22,"D",6,FALSE,FALSE,TRUE,FALSE,FALSE,TRUE,NA,NA,FALSE
"306",556,"2","broom",7087,"E9pool",3,3,"","R.pool350",22,"D",6,FALSE,TRUE,TRUE,TRUE,TRUE,FALSE,-2,FALSE,FALSE
"307",557,"2","test",7506,"E9pool",4,NA,"","R.pool350",22,"D",6,FALSE,FALSE,TRUE,TRUE,FALSE,FALSE,NA,NA,FALSE
"308",558,"2","ground",7901,"E9pool",5,NA,"","R.pool350",22,"D",6,FALSE,TRUE,TRUE,TRUE,TRUE,FALSE,-3,FALSE,FALSE
"309",559,"2","band",44330,"E9pool",0,0,"band","R.pool350",23,"S",4,TRUE,TRUE,TRUE,FALSE,FALSE,FALSE,0,FALSE,FALSE
"310",560,"2","land",4777,"E9pool",1,1,"land","R.pool350",23,"S",4,TRUE,TRUE,TRUE,FALSE,FALSE,FALSE,0,FALSE,FALSE
"311",561,"2","stand",5852,"E9pool",2,2,"stand","R.pool350",23,"S",4,TRUE,TRUE,TRUE,FALSE,FALSE,FALSE,0,FALSE,FALSE
"312",562,"2","hand",4970,"E9pool",3,3,"hand","R.pool350",23,"S",4,TRUE,TRUE,TRUE,FALSE,FALSE,FALSE,0,FALSE,FALSE
"313",1662,"2","",NA,"E9pool",NA,4,"","R.pool350",23,"S",4,FALSE,FALSE,FALSE,FALSE,FALSE,TRUE,NA,NA,FALSE
"314",563,"2","mare",7005,"E9pool",0,0,"mare","R.pool350",24,"D",4,TRUE,TRUE,TRUE,FALSE,FALSE,FALSE,0,FALSE,FALSE
"315",564,"2","bell",5660,"E9pool",1,1,"beef","R.pool350",24,"D",4,FALSE,FALSE,TRUE,FALSE,FALSE,TRUE,NA,NA,FALSE
"316",565,"2","brain",5794,"E9pool",2,2,"","R.pool350",24,"D",4,FALSE,FALSE,TRUE,TRUE,FALSE,FALSE,NA,NA,FALSE
"317",566,"2","beef",8579,"E9pool",3,NA,"","R.pool350",24,"D",4,FALSE,TRUE,TRUE,TRUE,TRUE,FALSE,-2,FALSE,FALSE
"318",567,"2","bone",6679,"E9pool",0,0,"bone","R.pool350",25,"S",3,TRUE,TRUE,TRUE,FALSE,FALSE,FALSE,0,FALSE,FALSE
"319",568,"2","phone",6739,"E9pool",1,1,"phone","R.pool350",25,"S",3,TRUE,TRUE,TRUE,FALSE,FALSE,FALSE,0,FALSE,FALSE
"320",569,"2","stone",6565,"E9pool",2,2,"stone","R.pool350",25,"S",3,TRUE,TRUE,TRUE,FALSE,FALSE,FALSE,0,FALSE,FALSE
"321",1648,"2","",NA,"E9pool",NA,3,"","R.pool350",25,"S",3,FALSE,FALSE,FALSE,FALSE,FALSE,TRUE,NA,NA,FALSE
"322",570,"2","beard",5665,"E9pool",0,0,"beards","R.pool350",26,"D",5,FALSE,FALSE,TRUE,FALSE,FALSE,TRUE,NA,NA,FALSE
"323",571,"2","hill",5510,"E9pool",1,1,"hill","R.pool350",26,"D",5,TRUE,TRUE,TRUE,FALSE,FALSE,FALSE,0,FALSE,FALSE
"324",572,"2","dirt",5907,"E9pool",2,2,"dirt","R.pool350",26,"D",5,TRUE,TRUE,TRUE,FALSE,FALSE,FALSE,0,FALSE,FALSE
"325",573,"2","card",7375,"E9pool",3,3,"","R.pool350",26,"D",5,FALSE,FALSE,TRUE,TRUE,FALSE,FALSE,NA,NA,FALSE
"326",574,"2","line",5703,"E9pool",4,NA,"","R.pool350",26,"D",5,FALSE,FALSE,TRUE,TRUE,FALSE,FALSE,NA,NA,FALSE
"327",575,"2","pie",6228,"E9pool",0,0,"pie","R.pool350",27,"S",5,TRUE,TRUE,TRUE,FALSE,FALSE,FALSE,0,FALSE,FALSE
"328",576,"2","fly",6083,"E9pool",1,1,"fly","R.pool350",27,"S",5,TRUE,TRUE,TRUE,FALSE,FALSE,FALSE,0,FALSE,FALSE
"329",577,"2","tie",5600,"E9pool",2,2,"tie","R.pool350",27,"S",5,TRUE,TRUE,TRUE,FALSE,FALSE,FALSE,0,FALSE,FALSE
"330",578,"2","sky",6344,"E9pool",3,3,"","R.pool350",27,"S",5,FALSE,FALSE,TRUE,TRUE,FALSE,FALSE,NA,NA,FALSE
"331",579,"2","eye",5178,"E9pool",4,NA,"","R.pool350",27,"S",5,FALSE,FALSE,TRUE,TRUE,FALSE,FALSE,NA,NA,FALSE
"332",8,"3","beard",3805,"E4",0,0,"beard","Ospan.reg",4,"D",5,TRUE,TRUE,TRUE,FALSE,FALSE,FALSE,0,FALSE,FALSE
"333",9,"3","hill",4158,"E4",1,1,"dirt","Ospan.reg",4,"D",5,FALSE,TRUE,TRUE,FALSE,TRUE,FALSE,1,TRUE,FALSE
"334",10,"3","dirt",4147,"E4",2,2,"hill","Ospan.reg",4,"D",5,FALSE,TRUE,TRUE,FALSE,TRUE,FALSE,-1,FALSE,FALSE
"335",11,"3","card",3600,"E4",3,3,"line","Ospan.reg",4,"D",5,FALSE,FALSE,TRUE,FALSE,FALSE,TRUE,NA,NA,FALSE
"336",12,"3","line",3965,"E4",4,NA,"","Ospan.reg",4,"D",5,FALSE,TRUE,TRUE,TRUE,TRUE,FALSE,-1,FALSE,FALSE
"337",14,"3","coin",3217,"E4",0,0,"coin","Ospan.reg",5,"D",6,TRUE,TRUE,TRUE,FALSE,FALSE,FALSE,0,FALSE,FALSE
"338",15,"3","film",3412,"E4",1,1,"film","Ospan.reg",5,"D",6,TRUE,TRUE,TRUE,FALSE,FALSE,FALSE,0,FALSE,FALSE
"339",16,"3","leaf",3566,"E4",2,2,"map","Ospan.reg",5,"D",6,FALSE,FALSE,TRUE,FALSE,FALSE,TRUE,NA,NA,FALSE
"340",17,"3","train",3955,"E4",3,3,"art","Ospan.reg",5,"D",6,FALSE,FALSE,TRUE,FALSE,FALSE,TRUE,NA,NA,FALSE
"341",18,"3","map",3353,"E4",4,4,"","Ospan.reg",5,"D",6,FALSE,TRUE,TRUE,TRUE,TRUE,FALSE,-2,FALSE,FALSE
"342",19,"3","art",3942,"E4",5,NA,"","Ospan.reg",5,"D",6,FALSE,TRUE,TRUE,TRUE,TRUE,FALSE,-2,FALSE,FALSE
"343",20,"3","shell",3940,"E4",0,0,"shell","Ospan.reg",6,"D",6,TRUE,TRUE,TRUE,FALSE,FALSE,FALSE,0,FALSE,FALSE
"344",21,"3","tree",3945,"E4",1,1,"tree","Ospan.reg",6,"D",6,TRUE,TRUE,TRUE,FALSE,FALSE,FALSE,0,FALSE,FALSE
"345",22,"3","bowl",3560,"E4",2,2,"broom","Ospan.reg",6,"D",6,FALSE,FALSE,TRUE,FALSE,FALSE,TRUE,NA,NA,FALSE
"346",23,"3","broom",6292,"E4",3,3,"map","Ospan.reg",6,"D",6,FALSE,TRUE,TRUE,FALSE,TRUE,FALSE,-1,FALSE,TRUE
"347",24,"3","test",3754,"E4",4,NA,"","Ospan.reg",6,"D",6,FALSE,FALSE,TRUE,TRUE,FALSE,FALSE,NA,NA,FALSE
"348",25,"3","ground",4271,"E4",5,NA,"","Ospan.reg",6,"D",6,FALSE,FALSE,TRUE,TRUE,FALSE,FALSE,NA,NA,FALSE
"349",26,"3","ant",3408,"E4",0,0,"","Ospan.reg",7,"D",6,FALSE,FALSE,TRUE,TRUE,FALSE,FALSE,NA,NA,FALSE
"350",27,"3","air",5433,"E4",1,1,"ink","Ospan.reg",7,"D",6,FALSE,FALSE,TRUE,FALSE,FALSE,TRUE,NA,NA,FALSE
"351",28,"3","ink",5098,"E4",2,2,"cloud","Ospan.reg",7,"D",6,FALSE,TRUE,TRUE,FALSE,TRUE,FALSE,-1,FALSE,FALSE
"352",29,"3","cloud",4561,"E4",3,3,"breath","Ospan.reg",7,"D",6,FALSE,TRUE,TRUE,FALSE,TRUE,FALSE,-1,FALSE,FALSE
"353",30,"3","seat",3316,"E4",4,NA,"","Ospan.reg",7,"D",6,FALSE,FALSE,TRUE,TRUE,FALSE,FALSE,NA,NA,FALSE
"354",31,"3","breath",3116,"E4",5,NA,"","Ospan.reg",7,"D",6,FALSE,TRUE,TRUE,TRUE,TRUE,FALSE,-2,FALSE,FALSE
"355",32,"3","rice",3131,"E4",0,0,"","Ospan.reg",8,"D",3,FALSE,FALSE,TRUE,TRUE,FALSE,FALSE,NA,NA,FALSE
"356",33,"3","cat",3442,"E4",1,1,"cat","Ospan.reg",8,"D",3,TRUE,TRUE,TRUE,FALSE,FALSE,FALSE,0,FALSE,FALSE
"357",34,"3","trash",4516,"E4",2,2,"trash","Ospan.reg",8,"D",3,TRUE,TRUE,TRUE,FALSE,FALSE,FALSE,0,FALSE,FALSE
"358",38,"3","spice",3629,"E4",0,0,"spice","Ospan.reg",9,"D",5,TRUE,TRUE,TRUE,FALSE,FALSE,FALSE,0,FALSE,FALSE
"359",39,"3","heat",3790,"E4",1,1,"pear","Ospan.reg",9,"D",5,FALSE,FALSE,TRUE,FALSE,FALSE,TRUE,NA,NA,FALSE
"360",40,"3","shape",3522,"E4",2,2,"shape","Ospan.reg",9,"D",5,TRUE,TRUE,TRUE,FALSE,FALSE,FALSE,0,FALSE,FALSE
"361",41,"3","pear",3104,"E4",3,3,"guest","Ospan.reg",9,"D",5,FALSE,TRUE,TRUE,FALSE,TRUE,FALSE,-2,FALSE,FALSE
"362",42,"3","guest",3872,"E4",4,NA,"","Ospan.reg",9,"D",5,FALSE,TRUE,TRUE,TRUE,TRUE,FALSE,-1,FALSE,FALSE
"363",44,"3","deck",3371,"E4",0,0,"","Ospan.reg",10,"D",3,FALSE,TRUE,TRUE,TRUE,TRUE,FALSE,1,TRUE,FALSE
"364",45,"3","slice",3485,"E4",1,1,"deck","Ospan.reg",10,"D",3,FALSE,FALSE,TRUE,FALSE,FALSE,TRUE,NA,NA,FALSE
"365",46,"3","rat",4078,"E4",2,2,"rat","Ospan.reg",10,"D",3,TRUE,TRUE,TRUE,FALSE,FALSE,FALSE,0,FALSE,FALSE
"366",50,"3","toy",3213,"E4",0,0,"rat","Ospan.reg",11,"D",3,FALSE,FALSE,TRUE,FALSE,FALSE,TRUE,NA,NA,TRUE
"367",51,"3","wreck",3599,"E4",1,1,"deck","Ospan.reg",11,"D",3,FALSE,FALSE,TRUE,FALSE,FALSE,TRUE,NA,NA,TRUE
"368",52,"3","frown",3756,"E4",2,2,"frown","Ospan.reg",11,"D",3,TRUE,TRUE,TRUE,FALSE,FALSE,FALSE,0,FALSE,FALSE
"369",56,"3","path",2880,"E4",0,0,"","Ospan.reg",12,"D",5,FALSE,FALSE,TRUE,TRUE,FALSE,FALSE,NA,NA,FALSE
"370",57,"3","nest",4048,"E4",1,1,"","Ospan.reg",12,"D",5,FALSE,FALSE,TRUE,TRUE,FALSE,FALSE,NA,NA,FALSE
"371",58,"3","square",3321,"E4",2,2,"","Ospan.reg",12,"D",5,FALSE,FALSE,TRUE,TRUE,FALSE,FALSE,NA,NA,FALSE
"372",59,"3","wood",3392,"E4",3,3,"wood","Ospan.reg",12,"D",5,TRUE,TRUE,TRUE,FALSE,FALSE,FALSE,0,FALSE,FALSE
"373",60,"3","beach",3603,"E4",4,4,"beach","Ospan.reg",12,"D",5,TRUE,TRUE,TRUE,FALSE,FALSE,FALSE,0,FALSE,FALSE
"374",62,"3","chest",3164,"E4",0,0,"chest","Ospan.reg",13,"D",4,TRUE,TRUE,TRUE,FALSE,FALSE,FALSE,0,FALSE,FALSE
"375",63,"3","lane",3607,"E4",1,1,"","Ospan.reg",13,"D",4,FALSE,FALSE,TRUE,TRUE,FALSE,FALSE,NA,NA,FALSE
"376",64,"3","hair",3843,"E4",2,2,"hair","Ospan.reg",13,"D",4,TRUE,TRUE,TRUE,FALSE,FALSE,FALSE,0,FALSE,FALSE
"377",65,"3","crown",3613,"E4",3,3,"crown","Ospan.reg",13,"D",4,TRUE,TRUE,TRUE,FALSE,FALSE,FALSE,0,FALSE,FALSE
"378",68,"3","mare",3029,"E4",0,0,"mare","Ospan.reg",14,"D",4,TRUE,TRUE,TRUE,FALSE,FALSE,FALSE,0,FALSE,FALSE
"379",69,"3","bell",3222,"E4",1,1,"bell","Ospan.reg",14,"D",4,TRUE,TRUE,TRUE,FALSE,FALSE,FALSE,0,FALSE,FALSE
"380",70,"3","brain",3585,"E4",2,2,"brain","Ospan.reg",14,"D",4,TRUE,TRUE,TRUE,FALSE,FALSE,FALSE,0,FALSE,FALSE
"381",71,"3","beef",4734,"E4",3,3,"beef","Ospan.reg",14,"D",4,TRUE,TRUE,TRUE,FALSE,FALSE,FALSE,0,FALSE,FALSE
"382",74,"3","neck",3269,"E4",0,0,"","Ospan.reg",15,"D",4,FALSE,FALSE,TRUE,TRUE,FALSE,FALSE,NA,NA,FALSE
"383",75,"3","town",3261,"E4",1,1,"town","Ospan.reg",15,"D",4,TRUE,TRUE,TRUE,FALSE,FALSE,FALSE,0,FALSE,FALSE
"384",76,"3","hat",3574,"E4",2,2,"","Ospan.reg",15,"D",4,FALSE,FALSE,TRUE,TRUE,FALSE,FALSE,NA,NA,FALSE
"385",77,"3","street",3715,"E4",3,3,"street","Ospan.reg",15,"D",4,TRUE,TRUE,TRUE,FALSE,FALSE,FALSE,0,FALSE,FALSE
"386",80,"3","boot",3274,"E4",0,0,"boot","Ospan.reg",16,"S",6,TRUE,TRUE,TRUE,FALSE,FALSE,FALSE,0,FALSE,FALSE
"387",81,"3","suit",3114,"E4",1,1,"suit","Ospan.reg",16,"S",6,TRUE,TRUE,TRUE,FALSE,FALSE,FALSE,0,FALSE,FALSE
"388",82,"3","flute",2969,"E4",2,2,"flute","Ospan.reg",16,"S",6,TRUE,TRUE,TRUE,FALSE,FALSE,FALSE,0,FALSE,FALSE
"389",83,"3","loot",3933,"E4",3,3,"lute","Ospan.reg",16,"S",6,FALSE,FALSE,TRUE,FALSE,FALSE,TRUE,NA,NA,FALSE
"390",84,"3","root",3540,"E4",4,4,"brute","Ospan.reg",16,"S",6,FALSE,FALSE,TRUE,FALSE,FALSE,TRUE,NA,NA,FALSE
"391",85,"3","brute",3746,"E4",5,NA,"","Ospan.reg",16,"S",6,FALSE,TRUE,TRUE,TRUE,TRUE,FALSE,-1,FALSE,FALSE
"392",86,"3","bread",2592,"E4",0,0,"bread","Ospan.reg",17,"S",4,TRUE,TRUE,TRUE,FALSE,FALSE,FALSE,0,FALSE,FALSE
"393",87,"3","head",3397,"E4",1,1,"thread","Ospan.reg",17,"S",4,FALSE,FALSE,TRUE,FALSE,FALSE,TRUE,NA,NA,FALSE
"394",88,"3","thread",3801,"E4",2,2,"","Ospan.reg",17,"S",4,FALSE,TRUE,TRUE,TRUE,TRUE,FALSE,-1,FALSE,FALSE
"395",89,"3","bed",4420,"E4",3,3,"bed","Ospan.reg",17,"S",4,TRUE,TRUE,TRUE,FALSE,FALSE,FALSE,0,FALSE,FALSE
"396",92,"3","cream",3171,"E4",0,0,"cream","Ospan.reg",18,"S",3,TRUE,TRUE,TRUE,FALSE,FALSE,FALSE,0,FALSE,FALSE
"397",93,"3","team",4591,"E4",1,1,"team","Ospan.reg",18,"S",3,TRUE,TRUE,TRUE,FALSE,FALSE,FALSE,0,FALSE,FALSE
"398",94,"3","steam",3370,"E4",2,2,"steam","Ospan.reg",18,"S",3,TRUE,TRUE,TRUE,FALSE,FALSE,FALSE,0,FALSE,FALSE
"399",98,"3","mail",3155,"E4",0,0,"mail","Ospan.reg",19,"S",6,TRUE,TRUE,TRUE,FALSE,FALSE,FALSE,0,FALSE,FALSE
"400",99,"3","sail",3303,"E4",1,1,"tail","Ospan.reg",19,"S",6,FALSE,TRUE,TRUE,FALSE,TRUE,FALSE,2,TRUE,FALSE
"401",100,"3","trail",3070,"E4",2,2,"","Ospan.reg",19,"S",6,FALSE,FALSE,TRUE,TRUE,FALSE,FALSE,NA,NA,FALSE
"402",101,"3","wail",3510,"E4",3,3,"sail","Ospan.reg",19,"S",6,FALSE,FALSE,TRUE,FALSE,FALSE,TRUE,NA,NA,FALSE
"403",102,"3","tail",2687,"E4",4,4,"jail","Ospan.reg",19,"S",6,FALSE,TRUE,TRUE,FALSE,TRUE,FALSE,-3,FALSE,FALSE
"404",103,"3","jail",3110,"E4",5,NA,"","Ospan.reg",19,"S",6,FALSE,TRUE,TRUE,TRUE,TRUE,FALSE,-1,FALSE,FALSE
"405",104,"3","doll",3532,"E4",0,0,"doll","Ospan.reg",20,"S",6,TRUE,TRUE,TRUE,FALSE,FALSE,FALSE,0,FALSE,FALSE
"406",105,"3","ball",3330,"E4",1,1,"","Ospan.reg",20,"S",6,FALSE,FALSE,TRUE,TRUE,FALSE,FALSE,NA,NA,FALSE
"407",106,"3","shawl",3384,"E4",2,2,"brawl","Ospan.reg",20,"S",6,FALSE,FALSE,TRUE,FALSE,FALSE,TRUE,NA,NA,FALSE
"408",107,"3","hall",3348,"E4",3,3,"wall","Ospan.reg",20,"S",6,FALSE,FALSE,TRUE,FALSE,FALSE,TRUE,NA,NA,FALSE
"409",108,"3","brawl",3458,"E4",4,NA,"","Ospan.reg",20,"S",6,FALSE,TRUE,TRUE,TRUE,TRUE,FALSE,-2,FALSE,FALSE
"410",109,"3","wall",3394,"E4",5,NA,"","Ospan.reg",20,"S",6,FALSE,TRUE,TRUE,TRUE,TRUE,FALSE,-2,FALSE,FALSE
"411",110,"3","jar",2965,"E4",0,0,"","Ospan.reg",21,"S",5,FALSE,FALSE,TRUE,TRUE,FALSE,FALSE,NA,NA,FALSE
"412",111,"3","bar",3881,"E4",1,1,"","Ospan.reg",21,"S",5,FALSE,FALSE,TRUE,TRUE,FALSE,FALSE,NA,NA,FALSE
"413",112,"3","car",3584,"E4",2,2,"car","Ospan.reg",21,"S",5,TRUE,TRUE,TRUE,FALSE,FALSE,FALSE,0,FALSE,FALSE
"414",113,"3","scar",2924,"E4",3,3,"star","Ospan.reg",21,"S",5,FALSE,FALSE,TRUE,FALSE,FALSE,TRUE,NA,NA,FALSE
"415",114,"3","star",2812,"E4",4,NA,"","Ospan.reg",21,"S",5,FALSE,TRUE,TRUE,TRUE,TRUE,FALSE,-1,FALSE,FALSE
"416",116,"3","bone",2972,"E4",0,0,"","Ospan.reg",22,"S",3,FALSE,TRUE,TRUE,TRUE,TRUE,FALSE,1,TRUE,FALSE
"417",117,"3","phone",3361,"E4",1,1,"bone","Ospan.reg",22,"S",3,FALSE,FALSE,TRUE,FALSE,FALSE,TRUE,NA,NA,FALSE
"418",118,"3","stone",3174,"E4",2,2,"stone","Ospan.reg",22,"S",3,TRUE,TRUE,TRUE,FALSE,FALSE,FALSE,0,FALSE,FALSE
"419",122,"3","deer",3240,"E4",0,0,"deer","Ospan.reg",23,"S",4,TRUE,TRUE,TRUE,FALSE,FALSE,FALSE,0,FALSE,FALSE
"420",123,"3","sphere",3626,"E4",1,1,"sphere","Ospan.reg",23,"S",4,TRUE,TRUE,TRUE,FALSE,FALSE,FALSE,0,FALSE,FALSE
"421",124,"3","ear",3572,"E4",2,2,"","Ospan.reg",23,"S",4,FALSE,FALSE,TRUE,TRUE,FALSE,FALSE,NA,NA,FALSE
"422",125,"3","tear",3319,"E4",3,3,"","Ospan.reg",23,"S",4,FALSE,FALSE,TRUE,TRUE,FALSE,FALSE,NA,NA,FALSE
"423",128,"3","band",2577,"E4",0,0,"land","Ospan.reg",24,"S",4,FALSE,FALSE,TRUE,FALSE,FALSE,TRUE,NA,NA,FALSE
"424",129,"3","land",2669,"E4",1,1,"stand","Ospan.reg",24,"S",4,FALSE,TRUE,TRUE,FALSE,TRUE,FALSE,-1,FALSE,FALSE
"425",130,"3","stand",2774,"E4",2,2,"hand","Ospan.reg",24,"S",4,FALSE,TRUE,TRUE,FALSE,TRUE,FALSE,-1,FALSE,FALSE
"426",131,"3","hand",3380,"E4",3,NA,"","Ospan.reg",24,"S",4,FALSE,TRUE,TRUE,TRUE,TRUE,FALSE,-1,FALSE,FALSE
"427",134,"3","pie",3048,"E4",0,0,"","Ospan.reg",25,"S",5,FALSE,FALSE,TRUE,TRUE,FALSE,FALSE,NA,NA,FALSE
"428",135,"3","fly",3121,"E4",1,1,"fly","Ospan.reg",25,"S",5,TRUE,TRUE,TRUE,FALSE,FALSE,FALSE,0,FALSE,FALSE
"429",136,"3","tie",3863,"E4",2,2,"sky","Ospan.reg",25,"S",5,FALSE,FALSE,TRUE,FALSE,FALSE,TRUE,NA,NA,FALSE
"430",137,"3","sky",2847,"E4",3,3,"eye","Ospan.reg",25,"S",5,FALSE,TRUE,TRUE,FALSE,TRUE,FALSE,-1,FALSE,FALSE
"431",138,"3","eye",3347,"E4",4,NA,"","Ospan.reg",25,"S",5,FALSE,TRUE,TRUE,TRUE,TRUE,FALSE,-1,FALSE,FALSE
"432",140,"3","blouse",2729,"E4",0,0,"blouse","Ospan.reg",26,"S",3,TRUE,TRUE,TRUE,FALSE,FALSE,FALSE,0,FALSE,FALSE
"433",141,"3","house",3048,"E4",1,1,"house","Ospan.reg",26,"S",3,TRUE,TRUE,TRUE,FALSE,FALSE,FALSE,0,FALSE,FALSE
"434",142,"3","mouse",3281,"E4",2,2,"mouse","Ospan.reg",26,"S",3,TRUE,TRUE,TRUE,FALSE,FALSE,FALSE,0,FALSE,FALSE
"435",146,"3","king",2756,"E4",0,0,"king","Ospan.reg",27,"S",5,TRUE,TRUE,TRUE,FALSE,FALSE,FALSE,0,FALSE,FALSE
"436",147,"3","ring",3112,"E4",1,1,"ring","Ospan.reg",27,"S",5,TRUE,TRUE,TRUE,FALSE,FALSE,FALSE,0,FALSE,FALSE
"437",148,"3","spring",3216,"E4",2,2,"spring","Ospan.reg",27,"S",5,TRUE,TRUE,TRUE,FALSE,FALSE,FALSE,0,FALSE,FALSE
"438",149,"3","string",3627,"E4",3,3,"wing","Ospan.reg",27,"S",5,FALSE,FALSE,TRUE,FALSE,FALSE,TRUE,NA,NA,FALSE
"439",150,"3","wing",2901,"E4",4,4,"","Ospan.reg",27,"S",5,FALSE,TRUE,TRUE,TRUE,TRUE,FALSE,-1,FALSE,FALSE
"440",588,"3","doll",5029,"E9pool",0,0,"ball","R.pool350",4,"S",6,FALSE,FALSE,TRUE,FALSE,FALSE,TRUE,NA,NA,FALSE
"441",589,"3","ball",4589,"E9pool",1,1,"brawl","R.pool350",4,"S",6,FALSE,TRUE,TRUE,FALSE,TRUE,FALSE,-1,FALSE,FALSE
"442",590,"3","shawl",5078,"E9pool",2,2,"","R.pool350",4,"S",6,FALSE,FALSE,TRUE,TRUE,FALSE,FALSE,NA,NA,FALSE
"443",591,"3","hall",5453,"E9pool",3,3,"","R.pool350",4,"S",6,FALSE,FALSE,TRUE,TRUE,FALSE,FALSE,NA,NA,FALSE
"444",592,"3","brawl",5058,"E9pool",4,4,"","R.pool350",4,"S",6,FALSE,TRUE,TRUE,TRUE,TRUE,FALSE,-3,FALSE,FALSE
"445",593,"3","wall",4753,"E9pool",5,5,"","R.pool350",4,"S",6,FALSE,FALSE,TRUE,TRUE,FALSE,FALSE,NA,NA,FALSE
"446",594,"3","rice",4538,"E9pool",0,0,"rice","R.pool350",5,"D",3,TRUE,TRUE,TRUE,FALSE,FALSE,FALSE,0,FALSE,FALSE
"447",595,"3","cat",4950,"E9pool",1,1,"cat","R.pool350",5,"D",3,TRUE,TRUE,TRUE,FALSE,FALSE,FALSE,0,FALSE,FALSE
"448",596,"3","trash",4657,"E9pool",2,2,"trash","R.pool350",5,"D",3,TRUE,TRUE,TRUE,FALSE,FALSE,FALSE,0,FALSE,FALSE
"449",597,"3","path",4716,"E9pool",0,0,"","R.pool350",6,"D",5,FALSE,FALSE,TRUE,TRUE,FALSE,FALSE,NA,NA,FALSE
"450",598,"3","nest",4785,"E9pool",1,1,"","R.pool350",6,"D",5,FALSE,FALSE,TRUE,TRUE,FALSE,FALSE,NA,NA,FALSE
"451",599,"3","square",5660,"E9pool",2,2,"","R.pool350",6,"D",5,FALSE,FALSE,TRUE,TRUE,FALSE,FALSE,NA,NA,FALSE
"452",600,"3","wood",4898,"E9pool",3,3,"","R.pool350",6,"D",5,FALSE,FALSE,TRUE,TRUE,FALSE,FALSE,NA,NA,FALSE
"453",601,"3","beach",4982,"E9pool",4,4,"beach","R.pool350",6,"D",5,TRUE,TRUE,TRUE,FALSE,FALSE,FALSE,0,FALSE,FALSE
"454",602,"3","coin",5844,"E9pool",0,0,"","R.pool350",7,"D",6,FALSE,FALSE,TRUE,TRUE,FALSE,FALSE,NA,NA,FALSE
"455",603,"3","film",4996,"E9pool",1,1,"","R.pool350",7,"D",6,FALSE,FALSE,TRUE,TRUE,FALSE,FALSE,NA,NA,FALSE
"456",604,"3","leaf",5589,"E9pool",2,2,"","R.pool350",7,"D",6,FALSE,FALSE,TRUE,TRUE,FALSE,FALSE,NA,NA,FALSE
"457",605,"3","train",5454,"E9pool",3,3,"live","R.pool350",7,"D",6,FALSE,FALSE,TRUE,FALSE,FALSE,TRUE,NA,NA,FALSE
"458",606,"3","map",5908,"E9pool",4,4,"art","R.pool350",7,"D",6,FALSE,FALSE,TRUE,FALSE,FALSE,TRUE,NA,NA,FALSE
"459",607,"3","art",5633,"E9pool",5,NA,"","R.pool350",7,"D",6,FALSE,TRUE,TRUE,TRUE,TRUE,FALSE,-1,FALSE,FALSE
"460",608,"3","neck",5168,"E9pool",0,0,"","R.pool350",8,"D",4,FALSE,FALSE,TRUE,TRUE,FALSE,FALSE,NA,NA,FALSE
"461",609,"3","town",5105,"E9pool",1,1,"","R.pool350",8,"D",4,FALSE,FALSE,TRUE,TRUE,FALSE,FALSE,NA,NA,FALSE
"462",610,"3","hat",6006,"E9pool",2,2,"hat","R.pool350",8,"D",4,TRUE,TRUE,TRUE,FALSE,FALSE,FALSE,0,FALSE,FALSE
"463",611,"3","street",4694,"E9pool",3,3,"street","R.pool350",8,"D",4,TRUE,TRUE,TRUE,FALSE,FALSE,FALSE,0,FALSE,FALSE
"464",612,"3","bread",5727,"E9pool",0,0,"bed","R.pool350",9,"S",4,FALSE,TRUE,TRUE,FALSE,TRUE,FALSE,2,TRUE,FALSE
"465",613,"3","head",4794,"E9pool",1,1,"head","R.pool350",9,"S",4,TRUE,TRUE,TRUE,FALSE,FALSE,FALSE,0,FALSE,FALSE
"466",614,"3","thread",5211,"E9pool",2,2,"bread","R.pool350",9,"S",4,FALSE,FALSE,TRUE,FALSE,FALSE,TRUE,NA,NA,FALSE
"467",615,"3","bed",6267,"E9pool",3,NA,"","R.pool350",9,"S",4,FALSE,TRUE,TRUE,TRUE,TRUE,FALSE,-3,FALSE,FALSE
"468",616,"3","blouse",5458,"E9pool",0,0,"blouse","R.pool350",10,"S",3,TRUE,TRUE,TRUE,FALSE,FALSE,FALSE,0,FALSE,FALSE
"469",617,"3","house",5250,"E9pool",1,1,"house","R.pool350",10,"S",3,TRUE,TRUE,TRUE,FALSE,FALSE,FALSE,0,FALSE,FALSE
"470",618,"3","mouse",5559,"E9pool",2,2,"mouse","R.pool350",10,"S",3,TRUE,TRUE,TRUE,FALSE,FALSE,FALSE,0,FALSE,FALSE
"471",619,"3","king",5284,"E9pool",0,0,"king","R.pool350",11,"S",5,TRUE,TRUE,TRUE,FALSE,FALSE,FALSE,0,FALSE,FALSE
"472",620,"3","ring",4544,"E9pool",1,1,"ring","R.pool350",11,"S",5,TRUE,TRUE,TRUE,FALSE,FALSE,FALSE,0,FALSE,FALSE
"473",621,"3","spring",4773,"E9pool",2,2,"","R.pool350",11,"S",5,FALSE,FALSE,TRUE,TRUE,FALSE,FALSE,NA,NA,FALSE
"474",622,"3","string",5567,"E9pool",3,3,"","R.pool350",11,"S",5,FALSE,FALSE,TRUE,TRUE,FALSE,FALSE,NA,NA,FALSE
"475",623,"3","wing",5480,"E9pool",4,4,"","R.pool350",11,"S",5,FALSE,FALSE,TRUE,TRUE,FALSE,FALSE,NA,NA,FALSE
"476",624,"3","chest",5479,"E9pool",0,0,"","R.pool350",12,"D",4,FALSE,FALSE,TRUE,TRUE,FALSE,FALSE,NA,NA,FALSE
"477",625,"3","lane",4533,"E9pool",1,1,"ring","R.pool350",12,"D",4,FALSE,FALSE,TRUE,FALSE,FALSE,TRUE,NA,NA,TRUE
"478",626,"3","hair",6609,"E9pool",2,2,"crown","R.pool350",12,"D",4,FALSE,FALSE,TRUE,FALSE,FALSE,TRUE,NA,NA,FALSE
"479",627,"3","crown",6609,"E9pool",3,3,"","R.pool350",12,"D",4,FALSE,TRUE,TRUE,TRUE,TRUE,FALSE,-1,FALSE,FALSE
"480",628,"3","ant",5359,"E9pool",0,0,"ant","R.pool350",13,"D",6,TRUE,TRUE,TRUE,FALSE,FALSE,FALSE,0,FALSE,FALSE
"481",629,"3","air",5315,"E9pool",1,1,"air","R.pool350",13,"D",6,TRUE,TRUE,TRUE,FALSE,FALSE,FALSE,0,FALSE,FALSE
"482",630,"3","ink",5182,"E9pool",2,2,"breath","R.pool350",13,"D",6,FALSE,FALSE,TRUE,FALSE,FALSE,TRUE,NA,NA,FALSE
"483",631,"3","cloud",5584,"E9pool",3,NA,"","R.pool350",13,"D",6,FALSE,FALSE,TRUE,TRUE,FALSE,FALSE,NA,NA,FALSE
"484",632,"3","seat",6153,"E9pool",4,NA,"","R.pool350",13,"D",6,FALSE,FALSE,TRUE,TRUE,FALSE,FALSE,NA,NA,FALSE
"485",633,"3","breath",4956,"E9pool",5,NA,"","R.pool350",13,"D",6,FALSE,TRUE,TRUE,TRUE,TRUE,FALSE,-3,FALSE,FALSE
"486",634,"3","deer",6696,"E9pool",0,0,"","R.pool350",14,"S",4,FALSE,FALSE,TRUE,TRUE,FALSE,FALSE,NA,NA,FALSE
"487",635,"3","sphere",5524,"E9pool",1,1,"","R.pool350",14,"S",4,FALSE,FALSE,TRUE,TRUE,FALSE,FALSE,NA,NA,FALSE
"488",636,"3","ear",4760,"E9pool",2,2,"ear","R.pool350",14,"S",4,TRUE,TRUE,TRUE,FALSE,FALSE,FALSE,0,FALSE,FALSE
"489",637,"3","tear",5740,"E9pool",3,3,"tear","R.pool350",14,"S",4,TRUE,TRUE,TRUE,FALSE,FALSE,FALSE,0,FALSE,FALSE
"490",1663,"3","",NA,"E9pool",NA,4,"","R.pool350",14,"S",4,FALSE,FALSE,FALSE,FALSE,FALSE,TRUE,NA,NA,FALSE
"491",638,"3","spice",4698,"E9pool",0,0,"","R.pool350",15,"D",5,FALSE,FALSE,TRUE,TRUE,FALSE,FALSE,NA,NA,FALSE
"492",639,"3","heat",5526,"E9pool",1,1,"","R.pool350",15,"D",5,FALSE,FALSE,TRUE,TRUE,FALSE,FALSE,NA,NA,FALSE
"493",640,"3","shape",4379,"E9pool",2,2,"pear","R.pool350",15,"D",5,FALSE,FALSE,TRUE,FALSE,FALSE,TRUE,NA,NA,FALSE
"494",641,"3","pear",5654,"E9pool",3,3,"guest","R.pool350",15,"D",5,FALSE,TRUE,TRUE,FALSE,TRUE,FALSE,-1,FALSE,FALSE
"495",642,"3","guest",4892,"E9pool",4,NA,"","R.pool350",15,"D",5,FALSE,TRUE,TRUE,TRUE,TRUE,FALSE,-1,FALSE,FALSE
"496",643,"3","jar",5154,"E9pool",0,0,"car","R.pool350",16,"S",5,FALSE,FALSE,TRUE,FALSE,FALSE,TRUE,NA,NA,FALSE
"497",644,"3","bar",5691,"E9pool",1,1,"bar","R.pool350",16,"S",5,TRUE,TRUE,TRUE,FALSE,FALSE,FALSE,0,FALSE,FALSE
"498",645,"3","car",4641,"E9pool",2,2,"","R.pool350",16,"S",5,FALSE,TRUE,TRUE,TRUE,TRUE,FALSE,-2,FALSE,FALSE
"499",646,"3","scar",5273,"E9pool",3,3,"star","R.pool350",16,"S",5,FALSE,FALSE,TRUE,FALSE,FALSE,TRUE,NA,NA,FALSE
"500",647,"3","star",5662,"E9pool",4,NA,"","R.pool350",16,"S",5,FALSE,TRUE,TRUE,TRUE,TRUE,FALSE,-1,FALSE,FALSE
"501",648,"3","boot",5372,"E9pool",0,0,"boot","R.pool350",17,"S",6,TRUE,TRUE,TRUE,FALSE,FALSE,FALSE,0,FALSE,FALSE
"502",649,"3","suit",4654,"E9pool",1,1,"flute","R.pool350",17,"S",6,FALSE,FALSE,TRUE,FALSE,FALSE,TRUE,NA,NA,FALSE
"503",650,"3","flute",5180,"E9pool",2,2,"","R.pool350",17,"S",6,FALSE,TRUE,TRUE,TRUE,TRUE,FALSE,-1,FALSE,FALSE
"504",651,"3","loot",6071,"E9pool",3,3,"loot","R.pool350",17,"S",6,TRUE,TRUE,TRUE,FALSE,FALSE,FALSE,0,FALSE,FALSE
"505",652,"3","root",4763,"E9pool",4,4,"brute","R.pool350",17,"S",6,FALSE,FALSE,TRUE,FALSE,FALSE,TRUE,NA,NA,FALSE
"506",653,"3","brute",4776,"E9pool",5,5,"","R.pool350",17,"S",6,FALSE,TRUE,TRUE,TRUE,TRUE,FALSE,-1,FALSE,FALSE
"507",654,"3","bone",4864,"E9pool",0,0,"","R.pool350",18,"S",3,FALSE,TRUE,TRUE,TRUE,TRUE,FALSE,1,TRUE,FALSE
"508",655,"3","phone",4591,"E9pool",1,1,"bone","R.pool350",18,"S",3,FALSE,FALSE,TRUE,FALSE,FALSE,TRUE,NA,NA,FALSE
"509",656,"3","stone",5257,"E9pool",2,2,"stone","R.pool350",18,"S",3,TRUE,TRUE,TRUE,FALSE,FALSE,FALSE,0,FALSE,FALSE
"510",657,"3","toy",6161,"E9pool",0,0,"bat","R.pool350",19,"D",3,FALSE,FALSE,TRUE,FALSE,FALSE,TRUE,NA,NA,FALSE
"511",658,"3","wreck",4547,"E9pool",1,1,"","R.pool350",19,"D",3,FALSE,FALSE,TRUE,TRUE,FALSE,FALSE,NA,NA,FALSE
"512",659,"3","frown",5912,"E9pool",2,2,"frown","R.pool350",19,"D",3,TRUE,TRUE,TRUE,FALSE,FALSE,FALSE,0,FALSE,FALSE
"513",1649,"3","",NA,"E9pool",NA,3,"","R.pool350",19,"D",3,FALSE,FALSE,FALSE,FALSE,FALSE,TRUE,NA,NA,FALSE
"514",660,"3","deck",6353,"E9pool",0,0,"spice","R.pool350",20,"D",3,FALSE,FALSE,TRUE,FALSE,FALSE,TRUE,NA,NA,TRUE
"515",661,"3","slice",5689,"E9pool",1,1,"","R.pool350",20,"D",3,FALSE,FALSE,TRUE,TRUE,FALSE,FALSE,NA,NA,FALSE
"516",662,"3","rat",5318,"E9pool",2,2,"rat","R.pool350",20,"D",3,TRUE,TRUE,TRUE,FALSE,FALSE,FALSE,0,FALSE,FALSE
"517",1650,"3","",NA,"E9pool",NA,3,"","R.pool350",20,"D",3,FALSE,FALSE,FALSE,FALSE,FALSE,TRUE,NA,NA,FALSE
"518",663,"3","mail",5576,"E9pool",0,0,"sail","R.pool350",21,"S",6,FALSE,TRUE,TRUE,FALSE,TRUE,FALSE,1,TRUE,FALSE
"519",664,"3","sail",4739,"E9pool",1,1,"mail","R.pool350",21,"S",6,FALSE,TRUE,TRUE,FALSE,TRUE,FALSE,-1,FALSE,FALSE
"520",665,"3","trail",4830,"E9pool",2,2,"wail","R.pool350",21,"S",6,FALSE,FALSE,TRUE,FALSE,FALSE,TRUE,NA,NA,FALSE
"521",666,"3","wail",4886,"E9pool",3,3,"","R.pool350",21,"S",6,FALSE,TRUE,TRUE,TRUE,TRUE,FALSE,-1,FALSE,FALSE
"522",667,"3","tail",6420,"E9pool",4,4,"jail","R.pool350",21,"S",6,FALSE,FALSE,TRUE,FALSE,FALSE,TRUE,NA,NA,FALSE
"523",668,"3","jail",6786,"E9pool",5,NA,"","R.pool350",21,"S",6,FALSE,TRUE,TRUE,TRUE,TRUE,FALSE,-1,FALSE,FALSE
"524",669,"3","cream",5235,"E9pool",0,0,"cream","R.pool350",22,"S",3,TRUE,TRUE,TRUE,FALSE,FALSE,FALSE,0,FALSE,FALSE
"525",670,"3","team",6242,"E9pool",1,1,"team","R.pool350",22,"S",3,TRUE,TRUE,TRUE,FALSE,FALSE,FALSE,0,FALSE,FALSE
"526",671,"3","steam",5640,"E9pool",2,2,"steam","R.pool350",22,"S",3,TRUE,TRUE,TRUE,FALSE,FALSE,FALSE,0,FALSE,FALSE
"527",1651,"3","",NA,"E9pool",NA,3,"","R.pool350",22,"S",3,FALSE,FALSE,FALSE,FALSE,FALSE,TRUE,NA,NA,FALSE
"528",672,"3","pie",4902,"E9pool",0,0,"","R.pool350",23,"S",5,FALSE,FALSE,TRUE,TRUE,FALSE,FALSE,NA,NA,FALSE
"529",673,"3","fly",5243,"E9pool",1,1,"fly","R.pool350",23,"S",5,TRUE,TRUE,TRUE,FALSE,FALSE,FALSE,0,FALSE,FALSE
"530",674,"3","tie",4979,"E9pool",2,2,"tie","R.pool350",23,"S",5,TRUE,TRUE,TRUE,FALSE,FALSE,FALSE,0,FALSE,FALSE
"531",675,"3","sky",6021,"E9pool",3,3,"","R.pool350",23,"S",5,FALSE,FALSE,TRUE,TRUE,FALSE,FALSE,NA,NA,FALSE
"532",676,"3","eye",5267,"E9pool",4,4,"eye","R.pool350",23,"S",5,TRUE,TRUE,TRUE,FALSE,FALSE,FALSE,0,FALSE,FALSE
"533",677,"3","shell",5227,"E9pool",0,0,"","R.pool350",24,"D",6,FALSE,FALSE,TRUE,TRUE,FALSE,FALSE,NA,NA,FALSE
"534",678,"3","tree",4891,"E9pool",1,1,"","R.pool350",24,"D",6,FALSE,FALSE,TRUE,TRUE,FALSE,FALSE,NA,NA,FALSE
"535",679,"3","bowl",6473,"E9pool",2,2,"","R.pool350",24,"D",6,FALSE,FALSE,TRUE,TRUE,FALSE,FALSE,NA,NA,FALSE
"536",680,"3","broom",6094,"E9pool",3,3,"ground","R.pool350",24,"D",6,FALSE,FALSE,TRUE,FALSE,FALSE,TRUE,NA,NA,FALSE
"537",681,"3","test",5978,"E9pool",4,4,"","R.pool350",24,"D",6,FALSE,FALSE,TRUE,TRUE,FALSE,FALSE,NA,NA,FALSE
"538",682,"3","ground",5940,"E9pool",5,NA,"","R.pool350",24,"D",6,FALSE,TRUE,TRUE,TRUE,TRUE,FALSE,-2,FALSE,FALSE
"539",683,"3","band",5164,"E9pool",0,0,"","R.pool350",25,"S",4,FALSE,FALSE,TRUE,TRUE,FALSE,FALSE,NA,NA,FALSE
"540",684,"3","land",5911,"E9pool",1,1,"land","R.pool350",25,"S",4,TRUE,TRUE,TRUE,FALSE,FALSE,FALSE,0,FALSE,FALSE
"541",685,"3","stand",5002,"E9pool",2,2,"stand","R.pool350",25,"S",4,TRUE,TRUE,TRUE,FALSE,FALSE,FALSE,0,FALSE,FALSE
"542",686,"3","hand",6155,"E9pool",3,3,"hand","R.pool350",25,"S",4,TRUE,TRUE,TRUE,FALSE,FALSE,FALSE,0,FALSE,FALSE
"543",687,"3","beard",5770,"E9pool",0,0,"","R.pool350",26,"D",5,FALSE,FALSE,TRUE,TRUE,FALSE,FALSE,NA,NA,FALSE
"544",688,"3","hill",4739,"E9pool",1,1,"","R.pool350",26,"D",5,FALSE,FALSE,TRUE,TRUE,FALSE,FALSE,NA,NA,FALSE
"545",689,"3","dirt",5392,"E9pool",2,2,"","R.pool350",26,"D",5,FALSE,FALSE,TRUE,TRUE,FALSE,FALSE,NA,NA,FALSE
"546",690,"3","card",5609,"E9pool",3,3,"line","R.pool350",26,"D",5,FALSE,FALSE,TRUE,FALSE,FALSE,TRUE,NA,NA,FALSE
"547",691,"3","line",5937,"E9pool",4,NA,"","R.pool350",26,"D",5,FALSE,TRUE,TRUE,TRUE,TRUE,FALSE,-1,FALSE,FALSE
"548",692,"3","mare",5157,"E9pool",0,0,"mare","R.pool350",27,"D",4,TRUE,TRUE,TRUE,FALSE,FALSE,FALSE,0,FALSE,FALSE
"549",693,"3","bell",5897,"E9pool",1,1,"","R.pool350",27,"D",4,FALSE,FALSE,TRUE,TRUE,FALSE,FALSE,NA,NA,FALSE
"550",694,"3","brain",5148,"E9pool",2,2,"","R.pool350",27,"D",4,FALSE,FALSE,TRUE,TRUE,FALSE,FALSE,NA,NA,FALSE
"551",695,"3","beef",6744,"E9pool",3,3,"beef","R.pool350",27,"D",4,TRUE,TRUE,TRUE,FALSE,FALSE,FALSE,0,FALSE,FALSE
"552",160,"4","band",3306,"E4",0,0,"band","Ospan.reg",4,"S",4,TRUE,TRUE,TRUE,FALSE,FALSE,FALSE,0,FALSE,FALSE
"553",161,"4","land",3464,"E4",1,1,"land","Ospan.reg",4,"S",4,TRUE,TRUE,TRUE,FALSE,FALSE,FALSE,0,FALSE,FALSE
"554",162,"4","stand",4898,"E4",2,2,"","Ospan.reg",4,"S",4,FALSE,FALSE,TRUE,TRUE,FALSE,FALSE,NA,NA,FALSE
"555",163,"4","hand",5303,"E4",3,3,"hand","Ospan.reg",4,"S",4,TRUE,TRUE,TRUE,FALSE,FALSE,FALSE,0,FALSE,FALSE
"556",166,"4","bread",3902,"E4",0,0,"bread","Ospan.reg",5,"S",4,TRUE,TRUE,TRUE,FALSE,FALSE,FALSE,0,FALSE,FALSE
"557",167,"4","head",3933,"E4",1,1,"head","Ospan.reg",5,"S",4,TRUE,TRUE,TRUE,FALSE,FALSE,FALSE,0,FALSE,FALSE
"558",168,"4","thread",3043,"E4",2,2,"","Ospan.reg",5,"S",4,FALSE,FALSE,TRUE,TRUE,FALSE,FALSE,NA,NA,FALSE
"559",169,"4","bed",3885,"E4",3,3,"bed","Ospan.reg",5,"S",4,TRUE,TRUE,TRUE,FALSE,FALSE,FALSE,0,FALSE,FALSE
"560",172,"4","doll",5406,"E4",0,0,"brawl","Ospan.reg",6,"S",6,FALSE,FALSE,TRUE,FALSE,FALSE,TRUE,NA,NA,FALSE
"561",173,"4","ball",4438,"E4",1,1,"ball","Ospan.reg",6,"S",6,TRUE,TRUE,TRUE,FALSE,FALSE,FALSE,0,FALSE,FALSE
"562",174,"4","shawl",6894,"E4",2,2,"","Ospan.reg",6,"S",6,FALSE,FALSE,TRUE,TRUE,FALSE,FALSE,NA,NA,FALSE
"563",175,"4","hall",4692,"E4",3,3,"wall","Ospan.reg",6,"S",6,FALSE,FALSE,TRUE,FALSE,FALSE,TRUE,NA,NA,FALSE
"564",176,"4","brawl",5875,"E4",4,4,"","Ospan.reg",6,"S",6,FALSE,TRUE,TRUE,TRUE,TRUE,FALSE,-4,FALSE,FALSE
"565",177,"4","wall",6297,"E4",5,NA,"","Ospan.reg",6,"S",6,FALSE,TRUE,TRUE,TRUE,TRUE,FALSE,-2,FALSE,FALSE
"566",178,"4","cream",4177,"E4",0,0,"cream","Ospan.reg",7,"S",3,TRUE,TRUE,TRUE,FALSE,FALSE,FALSE,0,FALSE,FALSE
"567",179,"4","team",3875,"E4",1,1,"team","Ospan.reg",7,"S",3,TRUE,TRUE,TRUE,FALSE,FALSE,FALSE,0,FALSE,FALSE
"568",180,"4","steam",4435,"E4",2,2,"steam","Ospan.reg",7,"S",3,TRUE,TRUE,TRUE,FALSE,FALSE,FALSE,0,FALSE,FALSE
"569",184,"4","jar",4679,"E4",0,0,"jar","Ospan.reg",8,"S",5,TRUE,TRUE,TRUE,FALSE,FALSE,FALSE,0,FALSE,FALSE
"570",185,"4","bar",4005,"E4",1,1,"","Ospan.reg",8,"S",5,FALSE,FALSE,TRUE,TRUE,FALSE,FALSE,NA,NA,FALSE
"571",186,"4","car",3631,"E4",2,2,"","Ospan.reg",8,"S",5,FALSE,FALSE,TRUE,TRUE,FALSE,FALSE,NA,NA,FALSE
"572",187,"4","scar",3057,"E4",3,3,"","Ospan.reg",8,"S",5,FALSE,FALSE,TRUE,TRUE,FALSE,FALSE,NA,NA,FALSE
"573",188,"4","star",3547,"E4",4,4,"","Ospan.reg",8,"S",5,FALSE,FALSE,TRUE,TRUE,FALSE,FALSE,NA,NA,FALSE
"574",190,"4","mail",5327,"E4",0,0,"","Ospan.reg",9,"S",6,FALSE,FALSE,TRUE,TRUE,FALSE,FALSE,NA,NA,FALSE
"575",191,"4","sail",3778,"E4",1,1,"","Ospan.reg",9,"S",6,FALSE,FALSE,TRUE,TRUE,FALSE,FALSE,NA,NA,FALSE
"576",192,"4","trail",4526,"E4",2,2,"","Ospan.reg",9,"S",6,FALSE,FALSE,TRUE,TRUE,FALSE,FALSE,NA,NA,FALSE
"577",193,"4","wail",4300,"E4",3,3,"","Ospan.reg",9,"S",6,FALSE,FALSE,TRUE,TRUE,FALSE,FALSE,NA,NA,FALSE
"578",194,"4","tail",4843,"E4",4,4,"","Ospan.reg",9,"S",6,FALSE,FALSE,TRUE,TRUE,FALSE,FALSE,NA,NA,FALSE
"579",195,"4","jail",4371,"E4",5,5,"jail","Ospan.reg",9,"S",6,TRUE,TRUE,TRUE,FALSE,FALSE,FALSE,0,FALSE,FALSE
"580",196,"4","pie",3509,"E4",0,0,"pie","Ospan.reg",10,"S",5,TRUE,TRUE,TRUE,FALSE,FALSE,FALSE,0,FALSE,FALSE
"581",197,"4","fly",4595,"E4",1,1,"tie","Ospan.reg",10,"S",5,FALSE,FALSE,TRUE,FALSE,FALSE,TRUE,NA,NA,FALSE
"582",198,"4","tie",3590,"E4",2,2,"","Ospan.reg",10,"S",5,FALSE,TRUE,TRUE,TRUE,TRUE,FALSE,-1,FALSE,FALSE
"583",199,"4","sky",4482,"E4",3,3,"","Ospan.reg",10,"S",5,FALSE,TRUE,TRUE,TRUE,TRUE,FALSE,1,TRUE,FALSE
"584",200,"4","eye",4729,"E4",4,4,"sky","Ospan.reg",10,"S",5,FALSE,FALSE,TRUE,FALSE,FALSE,TRUE,NA,NA,FALSE
"585",202,"4","king",4433,"E4",0,0,"king","Ospan.reg",11,"S",5,TRUE,TRUE,TRUE,FALSE,FALSE,FALSE,0,FALSE,FALSE
"586",203,"4","ring",5059,"E4",1,1,"spring","Ospan.reg",11,"S",5,FALSE,TRUE,TRUE,FALSE,TRUE,FALSE,1,TRUE,FALSE
"587",204,"4","spring",5315,"E4",2,2,"ring","Ospan.reg",11,"S",5,FALSE,TRUE,TRUE,FALSE,TRUE,FALSE,-1,FALSE,FALSE
"588",205,"4","string",3248,"E4",3,3,"wing","Ospan.reg",11,"S",5,FALSE,FALSE,TRUE,FALSE,FALSE,TRUE,NA,NA,FALSE
"589",206,"4","wing",3553,"E4",4,NA,"","Ospan.reg",11,"S",5,FALSE,TRUE,TRUE,TRUE,TRUE,FALSE,-1,FALSE,FALSE
"590",208,"4","boot",3803,"E4",0,0,"","Ospan.reg",12,"S",6,FALSE,FALSE,TRUE,TRUE,FALSE,FALSE,NA,NA,FALSE
"591",209,"4","suit",3597,"E4",1,1,"","Ospan.reg",12,"S",6,FALSE,FALSE,TRUE,TRUE,FALSE,FALSE,NA,NA,FALSE
"592",210,"4","flute",3330,"E4",2,2,"","Ospan.reg",12,"S",6,FALSE,FALSE,TRUE,TRUE,FALSE,FALSE,NA,NA,FALSE
"593",211,"4","loot",5256,"E4",3,3,"","Ospan.reg",12,"S",6,FALSE,FALSE,TRUE,TRUE,FALSE,FALSE,NA,NA,FALSE
"594",212,"4","root",4504,"E4",4,4,"brute","Ospan.reg",12,"S",6,FALSE,FALSE,TRUE,FALSE,FALSE,TRUE,NA,NA,FALSE
"595",213,"4","brute",5862,"E4",5,NA,"","Ospan.reg",12,"S",6,FALSE,TRUE,TRUE,TRUE,TRUE,FALSE,-1,FALSE,FALSE
"596",214,"4","deer",3711,"E4",0,0,"","Ospan.reg",13,"S",4,FALSE,FALSE,TRUE,TRUE,FALSE,FALSE,NA,NA,FALSE
"597",215,"4","sphere",5630,"E4",1,1,"","Ospan.reg",13,"S",4,FALSE,FALSE,TRUE,TRUE,FALSE,FALSE,NA,NA,FALSE
"598",216,"4","ear",3159,"E4",2,2,"ear","Ospan.reg",13,"S",4,TRUE,TRUE,TRUE,FALSE,FALSE,FALSE,0,FALSE,FALSE
"599",217,"4","tear",3068,"E4",3,3,"tear","Ospan.reg",13,"S",4,TRUE,TRUE,TRUE,FALSE,FALSE,FALSE,0,FALSE,FALSE
"600",220,"4","bone",4934,"E4",0,0,"bone","Ospan.reg",14,"S",3,TRUE,TRUE,TRUE,FALSE,FALSE,FALSE,0,FALSE,FALSE
"601",221,"4","phone",6210,"E4",1,1,"","Ospan.reg",14,"S",3,FALSE,FALSE,TRUE,TRUE,FALSE,FALSE,NA,NA,FALSE
"602",222,"4","stone",3196,"E4",2,2,"stone","Ospan.reg",14,"S",3,TRUE,TRUE,TRUE,FALSE,FALSE,FALSE,0,FALSE,FALSE
"603",226,"4","blouse",3381,"E4",0,0,"blouse","Ospan.reg",15,"S",3,TRUE,TRUE,TRUE,FALSE,FALSE,FALSE,0,FALSE,FALSE
"604",227,"4","house",6295,"E4",1,1,"mouse","Ospan.reg",15,"S",3,FALSE,TRUE,TRUE,FALSE,TRUE,FALSE,1,TRUE,FALSE
"605",228,"4","mouse",8326,"E4",2,2,"house","Ospan.reg",15,"S",3,FALSE,TRUE,TRUE,FALSE,TRUE,FALSE,-1,FALSE,FALSE
"606",232,"4","path",4801,"E4",0,0,"","Ospan.reg",16,"D",5,FALSE,TRUE,TRUE,TRUE,TRUE,FALSE,1,TRUE,FALSE
"607",233,"4","nest",3073,"E4",1,1,"path","Ospan.reg",16,"D",5,FALSE,TRUE,TRUE,FALSE,TRUE,FALSE,1,TRUE,FALSE
"608",234,"4","square",3643,"E4",2,2,"nest","Ospan.reg",16,"D",5,FALSE,FALSE,TRUE,FALSE,FALSE,TRUE,NA,NA,FALSE
"609",235,"4","wood",3461,"E4",3,3,"wood","Ospan.reg",16,"D",5,TRUE,TRUE,TRUE,FALSE,FALSE,FALSE,0,FALSE,FALSE
"610",236,"4","beach",3030,"E4",4,4,"beach","Ospan.reg",16,"D",5,TRUE,TRUE,TRUE,FALSE,FALSE,FALSE,0,FALSE,FALSE
"611",238,"4","neck",4232,"E4",0,0,"hat","Ospan.reg",17,"D",4,FALSE,TRUE,TRUE,FALSE,TRUE,FALSE,1,TRUE,FALSE
"612",239,"4","town",4145,"E4",1,1,"neck","Ospan.reg",17,"D",4,FALSE,FALSE,TRUE,FALSE,FALSE,TRUE,NA,NA,FALSE
"613",240,"4","hat",3751,"E4",2,2,"street","Ospan.reg",17,"D",4,FALSE,TRUE,TRUE,FALSE,TRUE,FALSE,-2,FALSE,FALSE
"614",241,"4","street",4491,"E4",3,NA,"","Ospan.reg",17,"D",4,FALSE,TRUE,TRUE,TRUE,TRUE,FALSE,-1,FALSE,FALSE
"615",244,"4","mare",3552,"E4",0,0,"mare","Ospan.reg",18,"D",4,TRUE,TRUE,TRUE,FALSE,FALSE,FALSE,0,FALSE,FALSE
"616",245,"4","bell",4294,"E4",1,1,"brain","Ospan.reg",18,"D",4,FALSE,FALSE,TRUE,FALSE,FALSE,TRUE,NA,NA,FALSE
"617",246,"4","brain",3843,"E4",2,2,"","Ospan.reg",18,"D",4,FALSE,TRUE,TRUE,TRUE,TRUE,FALSE,-1,FALSE,FALSE
"618",247,"4","beef",4324,"E4",3,3,"","Ospan.reg",18,"D",4,FALSE,FALSE,TRUE,TRUE,FALSE,FALSE,NA,NA,FALSE
"619",250,"4","rice",3689,"E4",0,0,"","Ospan.reg",19,"D",3,FALSE,FALSE,TRUE,TRUE,FALSE,FALSE,NA,NA,FALSE
"620",251,"4","cat",4519,"E4",1,1,"","Ospan.reg",19,"D",3,FALSE,FALSE,TRUE,TRUE,FALSE,FALSE,NA,NA,FALSE
"621",252,"4","trash",7045,"E4",2,2,"","Ospan.reg",19,"D",3,FALSE,FALSE,TRUE,TRUE,FALSE,FALSE,NA,NA,FALSE
"622",256,"4","spice",3327,"E4",0,0,"","Ospan.reg",20,"D",5,FALSE,FALSE,TRUE,TRUE,FALSE,FALSE,NA,NA,FALSE
"623",257,"4","heat",3749,"E4",1,1,"","Ospan.reg",20,"D",5,FALSE,FALSE,TRUE,TRUE,FALSE,FALSE,NA,NA,FALSE
"624",258,"4","shape",5385,"E4",2,2,"","Ospan.reg",20,"D",5,FALSE,FALSE,TRUE,TRUE,FALSE,FALSE,NA,NA,FALSE
"625",259,"4","pear",3261,"E4",3,3,"pear","Ospan.reg",20,"D",5,TRUE,TRUE,TRUE,FALSE,FALSE,FALSE,0,FALSE,FALSE
"626",260,"4","guest",3447,"E4",4,4,"guest","Ospan.reg",20,"D",5,TRUE,TRUE,TRUE,FALSE,FALSE,FALSE,0,FALSE,FALSE
"627",262,"4","ant",5889,"E4",0,0,"ant","Ospan.reg",21,"D",6,TRUE,TRUE,TRUE,FALSE,FALSE,FALSE,0,FALSE,FALSE
"628",263,"4","air",4725,"E4",1,1,"","Ospan.reg",21,"D",6,FALSE,FALSE,TRUE,TRUE,FALSE,FALSE,NA,NA,FALSE
"629",264,"4","ink",3434,"E4",2,2,"","Ospan.reg",21,"D",6,FALSE,FALSE,TRUE,TRUE,FALSE,FALSE,NA,NA,FALSE
"630",265,"4","cloud",4212,"E4",3,3,"seat","Ospan.reg",21,"D",6,FALSE,FALSE,TRUE,FALSE,FALSE,TRUE,NA,NA,FALSE
"631",266,"4","seat",4216,"E4",4,4,"breath","Ospan.reg",21,"D",6,FALSE,TRUE,TRUE,FALSE,TRUE,FALSE,-1,FALSE,FALSE
"632",267,"4","breath",3369,"E4",5,NA,"","Ospan.reg",21,"D",6,FALSE,TRUE,TRUE,TRUE,TRUE,FALSE,-1,FALSE,FALSE
"633",268,"4","coin",4047,"E4",0,0,"ant","Ospan.reg",22,"D",6,FALSE,FALSE,TRUE,FALSE,FALSE,TRUE,NA,NA,TRUE
"634",269,"4","film",3374,"E4",1,1,"air","Ospan.reg",22,"D",6,FALSE,FALSE,TRUE,FALSE,FALSE,TRUE,NA,NA,TRUE
"635",270,"4","leaf",3515,"E4",2,2,"","Ospan.reg",22,"D",6,FALSE,FALSE,TRUE,TRUE,FALSE,FALSE,NA,NA,FALSE
"636",271,"4","train",3906,"E4",3,3,"train","Ospan.reg",22,"D",6,TRUE,TRUE,TRUE,FALSE,FALSE,FALSE,0,FALSE,FALSE
"637",272,"4","map",4170,"E4",4,4,"art","Ospan.reg",22,"D",6,FALSE,FALSE,TRUE,FALSE,FALSE,TRUE,NA,NA,FALSE
"638",273,"4","art",4476,"E4",5,NA,"","Ospan.reg",22,"D",6,FALSE,TRUE,TRUE,TRUE,TRUE,FALSE,-1,FALSE,FALSE
"639",274,"4","shell",2992,"E4",0,0,"","Ospan.reg",23,"D",6,FALSE,FALSE,TRUE,TRUE,FALSE,FALSE,NA,NA,FALSE
"640",275,"4","tree",5267,"E4",1,1,"","Ospan.reg",23,"D",6,FALSE,FALSE,TRUE,TRUE,FALSE,FALSE,NA,NA,FALSE
"641",276,"4","bowl",5234,"E4",2,2,"","Ospan.reg",23,"D",6,FALSE,FALSE,TRUE,TRUE,FALSE,FALSE,NA,NA,FALSE
"642",277,"4","broom",3498,"E4",3,3,"","Ospan.reg",23,"D",6,FALSE,FALSE,TRUE,TRUE,FALSE,FALSE,NA,NA,FALSE
"643",278,"4","test",4403,"E4",4,4,"test","Ospan.reg",23,"D",6,TRUE,TRUE,TRUE,FALSE,FALSE,FALSE,0,FALSE,FALSE
"644",279,"4","ground",4669,"E4",5,5,"ground","Ospan.reg",23,"D",6,TRUE,TRUE,TRUE,FALSE,FALSE,FALSE,0,FALSE,FALSE
"645",280,"4","deck",3978,"E4",0,0,"deck","Ospan.reg",24,"D",3,TRUE,TRUE,TRUE,FALSE,FALSE,FALSE,0,FALSE,FALSE
"646",281,"4","slice",3557,"E4",1,1,"test","Ospan.reg",24,"D",3,FALSE,FALSE,TRUE,FALSE,FALSE,TRUE,NA,NA,TRUE
"647",282,"4","rat",4913,"E4",2,2,"rat","Ospan.reg",24,"D",3,TRUE,TRUE,TRUE,FALSE,FALSE,FALSE,0,FALSE,FALSE
"648",286,"4","chest",3728,"E4",0,0,"","Ospan.reg",25,"D",4,FALSE,FALSE,TRUE,TRUE,FALSE,FALSE,NA,NA,FALSE
"649",287,"4","lane",4502,"E4",1,1,"cehst","Ospan.reg",25,"D",4,FALSE,FALSE,TRUE,FALSE,FALSE,TRUE,NA,NA,FALSE
"650",288,"4","hair",5261,"E4",2,2,"hair","Ospan.reg",25,"D",4,TRUE,TRUE,TRUE,FALSE,FALSE,FALSE,0,FALSE,FALSE
"651",289,"4","crown",4300,"E4",3,3,"crown","Ospan.reg",25,"D",4,TRUE,TRUE,TRUE,FALSE,FALSE,FALSE,0,FALSE,FALSE
"652",292,"4","toy",4264,"E4",0,0,"toy","Ospan.reg",26,"D",3,TRUE,TRUE,TRUE,FALSE,FALSE,FALSE,0,FALSE,FALSE
"653",293,"4","wreck",3016,"E4",1,1,"frown","Ospan.reg",26,"D",3,FALSE,TRUE,TRUE,FALSE,TRUE,FALSE,1,TRUE,FALSE
"654",294,"4","frown",4716,"E4",2,2,"wreck","Ospan.reg",26,"D",3,FALSE,TRUE,TRUE,FALSE,TRUE,FALSE,-1,FALSE,FALSE
"655",298,"4","beard",4203,"E4",0,0,"","Ospan.reg",27,"D",5,FALSE,FALSE,TRUE,TRUE,FALSE,FALSE,NA,NA,FALSE
"656",299,"4","hill",5342,"E4",1,1,"","Ospan.reg",27,"D",5,FALSE,FALSE,TRUE,TRUE,FALSE,FALSE,NA,NA,FALSE
"657",300,"4","dirt",6001,"E4",2,2,"","Ospan.reg",27,"D",5,FALSE,FALSE,TRUE,TRUE,FALSE,FALSE,NA,NA,FALSE
"658",301,"4","card",3315,"E4",3,3,"","Ospan.reg",27,"D",5,FALSE,FALSE,TRUE,TRUE,FALSE,FALSE,NA,NA,FALSE
"659",302,"4","line",3209,"E4",4,4,"line","Ospan.reg",27,"D",5,TRUE,TRUE,TRUE,FALSE,FALSE,FALSE,0,FALSE,FALSE
"660",704,"4","bone",5980,"E9pool",0,0,"bone","R.pool350",4,"S",3,TRUE,TRUE,TRUE,FALSE,FALSE,FALSE,0,FALSE,FALSE
"661",705,"4","phone",5109,"E9pool",1,1,"","R.pool350",4,"S",3,FALSE,FALSE,TRUE,TRUE,FALSE,FALSE,NA,NA,FALSE
"662",706,"4","stone",6066,"E9pool",2,2,"stone","R.pool350",4,"S",3,TRUE,TRUE,TRUE,FALSE,FALSE,FALSE,0,FALSE,FALSE
"663",707,"4","doll",5748,"E9pool",0,0,"doll","R.pool350",5,"S",6,TRUE,TRUE,TRUE,FALSE,FALSE,FALSE,0,FALSE,FALSE
"664",708,"4","ball",5167,"E9pool",1,1,"ball","R.pool350",5,"S",6,TRUE,TRUE,TRUE,FALSE,FALSE,FALSE,0,FALSE,FALSE
"665",709,"4","shawl",5249,"E9pool",2,2,"shawl","R.pool350",5,"S",6,TRUE,TRUE,TRUE,FALSE,FALSE,FALSE,0,FALSE,FALSE
"666",710,"4","hall",6169,"E9pool",3,3,"","R.pool350",5,"S",6,FALSE,FALSE,TRUE,TRUE,FALSE,FALSE,NA,NA,FALSE
"667",711,"4","brawl",5434,"E9pool",4,4,"","R.pool350",5,"S",6,FALSE,FALSE,TRUE,TRUE,FALSE,FALSE,NA,NA,FALSE
"668",712,"4","wall",5361,"E9pool",5,5,"","R.pool350",5,"S",6,FALSE,FALSE,TRUE,TRUE,FALSE,FALSE,NA,NA,FALSE
"669",713,"4","rice",5645,"E9pool",0,0,"rice","R.pool350",6,"D",3,TRUE,TRUE,TRUE,FALSE,FALSE,FALSE,0,FALSE,FALSE
"670",714,"4","cat",5508,"E9pool",1,1,"cat","R.pool350",6,"D",3,TRUE,TRUE,TRUE,FALSE,FALSE,FALSE,0,FALSE,FALSE
"671",715,"4","trash",5465,"E9pool",2,2,"trash","R.pool350",6,"D",3,TRUE,TRUE,TRUE,FALSE,FALSE,FALSE,0,FALSE,FALSE
"672",716,"4","coin",5243,"E9pool",0,0,"coin","R.pool350",7,"D",6,TRUE,TRUE,TRUE,FALSE,FALSE,FALSE,0,FALSE,FALSE
"673",717,"4","film",5858,"E9pool",1,1,"stone","R.pool350",7,"D",6,FALSE,FALSE,TRUE,FALSE,FALSE,TRUE,NA,NA,TRUE
"674",718,"4","leaf",5904,"E9pool",2,2,"","R.pool350",7,"D",6,FALSE,TRUE,TRUE,TRUE,TRUE,FALSE,1,TRUE,FALSE
"675",719,"4","train",6109,"E9pool",3,3,"leaf","R.pool350",7,"D",6,FALSE,FALSE,TRUE,FALSE,FALSE,TRUE,NA,NA,FALSE
"676",720,"4","map",5824,"E9pool",4,4,"","R.pool350",7,"D",6,FALSE,FALSE,TRUE,TRUE,FALSE,FALSE,NA,NA,FALSE
"677",721,"4","art",6135,"E9pool",5,5,"","R.pool350",7,"D",6,FALSE,FALSE,TRUE,TRUE,FALSE,FALSE,NA,NA,FALSE
"678",1675,"4","",NA,"E9pool",NA,6,"","R.pool350",7,"D",6,FALSE,FALSE,FALSE,FALSE,FALSE,TRUE,NA,NA,FALSE
"679",1676,"4","",NA,"E9pool",NA,7,"","R.pool350",7,"D",6,FALSE,FALSE,FALSE,FALSE,FALSE,TRUE,NA,NA,FALSE
"680",722,"4","king",5448,"E9pool",0,0,"king","R.pool350",8,"S",5,TRUE,TRUE,TRUE,FALSE,FALSE,FALSE,0,FALSE,FALSE
"681",723,"4","ring",5007,"E9pool",1,1,"","R.pool350",8,"S",5,FALSE,TRUE,TRUE,TRUE,TRUE,FALSE,1,TRUE,FALSE
"682",724,"4","spring",5360,"E9pool",2,2,"ring","R.pool350",8,"S",5,FALSE,FALSE,TRUE,FALSE,FALSE,TRUE,NA,NA,FALSE
"683",725,"4","string",5931,"E9pool",3,3,"","R.pool350",8,"S",5,FALSE,FALSE,TRUE,TRUE,FALSE,FALSE,NA,NA,FALSE
"684",726,"4","wing",5694,"E9pool",4,4,"wing","R.pool350",8,"S",5,TRUE,TRUE,TRUE,FALSE,FALSE,FALSE,0,FALSE,FALSE
"685",727,"4","neck",13189,"E9pool",0,0,"neck","R.pool350",9,"D",4,TRUE,TRUE,TRUE,FALSE,FALSE,FALSE,0,FALSE,FALSE
"686",728,"4","town",5175,"E9pool",1,1,"","R.pool350",9,"D",4,FALSE,FALSE,TRUE,TRUE,FALSE,FALSE,NA,NA,FALSE
"687",729,"4","hat",5769,"E9pool",2,2,"","R.pool350",9,"D",4,FALSE,FALSE,TRUE,TRUE,FALSE,FALSE,NA,NA,FALSE
"688",730,"4","street",6218,"E9pool",3,3,"cooked","R.pool350",9,"D",4,FALSE,FALSE,TRUE,FALSE,FALSE,TRUE,NA,NA,FALSE
"689",731,"4","bread",8489,"E9pool",0,0,"speed","R.pool350",10,"S",4,FALSE,FALSE,TRUE,FALSE,FALSE,TRUE,NA,NA,FALSE
"690",732,"4","head",5747,"E9pool",1,1,"","R.pool350",10,"S",4,FALSE,FALSE,TRUE,TRUE,FALSE,FALSE,NA,NA,FALSE
"691",733,"4","thread",5398,"E9pool",2,2,"bed","R.pool350",10,"S",4,FALSE,FALSE,TRUE,FALSE,FALSE,TRUE,NA,NA,FALSE
"692",734,"4","bed",6431,"E9pool",3,NA,"","R.pool350",10,"S",4,FALSE,TRUE,TRUE,TRUE,TRUE,FALSE,-1,FALSE,FALSE
"693",735,"4","path",6122,"E9pool",0,0,"","R.pool350",11,"D",5,FALSE,FALSE,TRUE,TRUE,FALSE,FALSE,NA,NA,FALSE
"694",736,"4","nest",5341,"E9pool",1,1,"","R.pool350",11,"D",5,FALSE,FALSE,TRUE,TRUE,FALSE,FALSE,NA,NA,FALSE
"695",737,"4","square",5360,"E9pool",2,2,"wood","R.pool350",11,"D",5,FALSE,FALSE,TRUE,FALSE,FALSE,TRUE,NA,NA,FALSE
"696",738,"4","wood",5891,"E9pool",3,3,"beach","R.pool350",11,"D",5,FALSE,TRUE,TRUE,FALSE,TRUE,FALSE,-1,FALSE,FALSE
"697",739,"4","beach",5495,"E9pool",4,NA,"","R.pool350",11,"D",5,FALSE,TRUE,TRUE,TRUE,TRUE,FALSE,-1,FALSE,FALSE
"698",740,"4","toy",5788,"E9pool",0,0,"toy","R.pool350",12,"D",3,TRUE,TRUE,TRUE,FALSE,FALSE,FALSE,0,FALSE,FALSE
"699",741,"4","wreck",5348,"E9pool",1,1,"wreck","R.pool350",12,"D",3,TRUE,TRUE,TRUE,FALSE,FALSE,FALSE,0,FALSE,FALSE
"700",742,"4","frown",5936,"E9pool",2,2,"frown","R.pool350",12,"D",3,TRUE,TRUE,TRUE,FALSE,FALSE,FALSE,0,FALSE,FALSE
"701",743,"4","boot",5376,"E9pool",0,0,"boot","R.pool350",13,"S",6,TRUE,TRUE,TRUE,FALSE,FALSE,FALSE,0,FALSE,FALSE
"702",744,"4","suit",5242,"E9pool",1,1,"suit","R.pool350",13,"S",6,TRUE,TRUE,TRUE,FALSE,FALSE,FALSE,0,FALSE,FALSE
"703",745,"4","flute",5690,"E9pool",2,2,"loot","R.pool350",13,"S",6,FALSE,TRUE,TRUE,FALSE,TRUE,FALSE,1,TRUE,FALSE
"704",746,"4","loot",6238,"E9pool",3,3,"flute","R.pool350",13,"S",6,FALSE,TRUE,TRUE,FALSE,TRUE,FALSE,-1,FALSE,FALSE
"705",747,"4","root",7381,"E9pool",4,4,"","R.pool350",13,"S",6,FALSE,FALSE,TRUE,TRUE,FALSE,FALSE,NA,NA,FALSE
"706",748,"4","brute",6141,"E9pool",5,5,"","R.pool350",13,"S",6,FALSE,FALSE,TRUE,TRUE,FALSE,FALSE,NA,NA,FALSE
"707",1677,"4","",NA,"E9pool",NA,6,"","R.pool350",13,"S",6,FALSE,FALSE,FALSE,FALSE,FALSE,TRUE,NA,NA,FALSE
"708",749,"4","cream",5213,"E9pool",0,0,"cream","R.pool350",14,"S",3,TRUE,TRUE,TRUE,FALSE,FALSE,FALSE,0,FALSE,FALSE
"709",750,"4","team",5062,"E9pool",1,1,"team","R.pool350",14,"S",3,TRUE,TRUE,TRUE,FALSE,FALSE,FALSE,0,FALSE,FALSE
"710",751,"4","steam",5596,"E9pool",2,2,"steam","R.pool350",14,"S",3,TRUE,TRUE,TRUE,FALSE,FALSE,FALSE,0,FALSE,FALSE
"711",752,"4","spice",5051,"E9pool",0,0,"spice","R.pool350",15,"D",5,TRUE,TRUE,TRUE,FALSE,FALSE,FALSE,0,FALSE,FALSE
"712",753,"4","heat",5506,"E9pool",1,1,"heat","R.pool350",15,"D",5,TRUE,TRUE,TRUE,FALSE,FALSE,FALSE,0,FALSE,FALSE
"713",754,"4","shape",5382,"E9pool",2,2,"","R.pool350",15,"D",5,FALSE,FALSE,TRUE,TRUE,FALSE,FALSE,NA,NA,FALSE
"714",755,"4","pear",6576,"E9pool",3,3,"pear","R.pool350",15,"D",5,TRUE,TRUE,TRUE,FALSE,FALSE,FALSE,0,FALSE,FALSE
"715",756,"4","guest",5896,"E9pool",4,4,"cheered","R.pool350",15,"D",5,FALSE,FALSE,TRUE,FALSE,FALSE,TRUE,NA,NA,FALSE
"716",757,"4","deer",5215,"E9pool",0,0,"deer","R.pool350",16,"S",4,TRUE,TRUE,TRUE,FALSE,FALSE,FALSE,0,FALSE,FALSE
"717",758,"4","sphere",5064,"E9pool",1,1,"","R.pool350",16,"S",4,FALSE,FALSE,TRUE,TRUE,FALSE,FALSE,NA,NA,FALSE
"718",759,"4","ear",5271,"E9pool",2,2,"","R.pool350",16,"S",4,FALSE,FALSE,TRUE,TRUE,FALSE,FALSE,NA,NA,FALSE
"719",760,"4","tear",6134,"E9pool",3,3,"tear","R.pool350",16,"S",4,TRUE,TRUE,TRUE,FALSE,FALSE,FALSE,0,FALSE,FALSE
"720",761,"4","chest",5743,"E9pool",0,0,"","R.pool350",17,"D",4,FALSE,FALSE,TRUE,TRUE,FALSE,FALSE,NA,NA,FALSE
"721",762,"4","lane",5442,"E9pool",1,1,"","R.pool350",17,"D",4,FALSE,FALSE,TRUE,TRUE,FALSE,FALSE,NA,NA,FALSE
"722",763,"4","hair",7345,"E9pool",2,2,"hair","R.pool350",17,"D",4,TRUE,TRUE,TRUE,FALSE,FALSE,FALSE,0,FALSE,FALSE
"723",764,"4","crown",6779,"E9pool",3,3,"crown","R.pool350",17,"D",4,TRUE,TRUE,TRUE,FALSE,FALSE,FALSE,0,FALSE,FALSE
"724",765,"4","jar",6066,"E9pool",0,0,"bar","R.pool350",18,"S",5,FALSE,FALSE,TRUE,FALSE,FALSE,TRUE,NA,NA,FALSE
"725",766,"4","bar",5335,"E9pool",1,1,"","R.pool350",18,"S",5,FALSE,TRUE,TRUE,TRUE,TRUE,FALSE,-1,FALSE,FALSE
"726",767,"4","car",5474,"E9pool",2,2,"","R.pool350",18,"S",5,FALSE,FALSE,TRUE,TRUE,FALSE,FALSE,NA,NA,FALSE
"727",768,"4","scar",6128,"E9pool",3,3,"","R.pool350",18,"S",5,FALSE,FALSE,TRUE,TRUE,FALSE,FALSE,NA,NA,FALSE
"728",769,"4","star",6787,"E9pool",4,4,"star","R.pool350",18,"S",5,TRUE,TRUE,TRUE,FALSE,FALSE,FALSE,0,FALSE,FALSE
"729",770,"4","ant",5248,"E9pool",0,0,"","R.pool350",19,"D",6,FALSE,FALSE,TRUE,TRUE,FALSE,FALSE,NA,NA,FALSE
"730",771,"4","air",5158,"E9pool",1,1,"","R.pool350",19,"D",6,FALSE,FALSE,TRUE,TRUE,FALSE,FALSE,NA,NA,FALSE
"731",772,"4","ink",5065,"E9pool",2,2,"cloud","R.pool350",19,"D",6,FALSE,FALSE,TRUE,FALSE,FALSE,TRUE,NA,NA,FALSE
"732",773,"4","cloud",6608,"E9pool",3,3,"","R.pool350",19,"D",6,FALSE,TRUE,TRUE,TRUE,TRUE,FALSE,-1,FALSE,FALSE
"733",774,"4","seat",5455,"E9pool",4,4,"breath","R.pool350",19,"D",6,FALSE,FALSE,TRUE,FALSE,FALSE,TRUE,NA,NA,FALSE
"734",775,"4","breath",5855,"E9pool",5,NA,"","R.pool350",19,"D",6,FALSE,TRUE,TRUE,TRUE,TRUE,FALSE,-1,FALSE,FALSE
"735",776,"4","blouse",5181,"E9pool",0,0,"","R.pool350",20,"S",3,FALSE,FALSE,TRUE,TRUE,FALSE,FALSE,NA,NA,FALSE
"736",777,"4","house",5319,"E9pool",1,1,"house","R.pool350",20,"S",3,TRUE,TRUE,TRUE,FALSE,FALSE,FALSE,0,FALSE,FALSE
"737",778,"4","mouse",5227,"E9pool",2,2,"mouse","R.pool350",20,"S",3,TRUE,TRUE,TRUE,FALSE,FALSE,FALSE,0,FALSE,FALSE
"738",779,"4","beard",5287,"E9pool",0,0,"","R.pool350",21,"D",5,FALSE,FALSE,TRUE,TRUE,FALSE,FALSE,NA,NA,FALSE
"739",780,"4","hill",5540,"E9pool",1,1,"","R.pool350",21,"D",5,FALSE,FALSE,TRUE,TRUE,FALSE,FALSE,NA,NA,FALSE
"740",781,"4","dirt",5743,"E9pool",2,2,"","R.pool350",21,"D",5,FALSE,FALSE,TRUE,TRUE,FALSE,FALSE,NA,NA,FALSE
"741",782,"4","card",5458,"E9pool",3,3,"cold","R.pool350",21,"D",5,FALSE,FALSE,TRUE,FALSE,FALSE,TRUE,NA,NA,FALSE
"742",783,"4","line",5433,"E9pool",4,4,"line","R.pool350",21,"D",5,TRUE,TRUE,TRUE,FALSE,FALSE,FALSE,0,FALSE,FALSE
"743",784,"4","shell",5623,"E9pool",0,0,"","R.pool350",22,"D",6,FALSE,FALSE,TRUE,TRUE,FALSE,FALSE,NA,NA,FALSE
"744",785,"4","tree",5543,"E9pool",1,1,"","R.pool350",22,"D",6,FALSE,FALSE,TRUE,TRUE,FALSE,FALSE,NA,NA,FALSE
"745",786,"4","bowl",5282,"E9pool",2,2,"","R.pool350",22,"D",6,FALSE,FALSE,TRUE,TRUE,FALSE,FALSE,NA,NA,FALSE
"746",787,"4","broom",5808,"E9pool",3,3,"","R.pool350",22,"D",6,FALSE,FALSE,TRUE,TRUE,FALSE,FALSE,NA,NA,FALSE
"747",788,"4","test",5336,"E9pool",4,4,"","R.pool350",22,"D",6,FALSE,FALSE,TRUE,TRUE,FALSE,FALSE,NA,NA,FALSE
"748",789,"4","ground",5763,"E9pool",5,5,"gound","R.pool350",22,"D",6,FALSE,FALSE,TRUE,FALSE,FALSE,TRUE,NA,NA,FALSE
"749",790,"4","mail",6006,"E9pool",0,0,"","R.pool350",23,"S",6,FALSE,TRUE,TRUE,TRUE,TRUE,FALSE,3,TRUE,FALSE
"750",791,"4","sail",5198,"E9pool",1,1,"","R.pool350",23,"S",6,FALSE,FALSE,TRUE,TRUE,FALSE,FALSE,NA,NA,FALSE
"751",792,"4","trail",5319,"E9pool",2,2,"","R.pool350",23,"S",6,FALSE,FALSE,TRUE,TRUE,FALSE,FALSE,NA,NA,FALSE
"752",793,"4","wail",5563,"E9pool",3,3,"mail","R.pool350",23,"S",6,FALSE,TRUE,TRUE,FALSE,TRUE,FALSE,1,TRUE,FALSE
"753",794,"4","tail",6149,"E9pool",4,4,"wail","R.pool350",23,"S",6,FALSE,FALSE,TRUE,FALSE,FALSE,TRUE,NA,NA,FALSE
"754",795,"4","jail",5720,"E9pool",5,5,"jail","R.pool350",23,"S",6,TRUE,TRUE,TRUE,FALSE,FALSE,FALSE,0,FALSE,FALSE
"755",796,"4","band",5167,"E9pool",0,0,"","R.pool350",24,"S",4,FALSE,FALSE,TRUE,TRUE,FALSE,FALSE,NA,NA,FALSE
"756",797,"4","land",6505,"E9pool",1,1,"land","R.pool350",24,"S",4,TRUE,TRUE,TRUE,FALSE,FALSE,FALSE,0,FALSE,FALSE
"757",798,"4","stand",5093,"E9pool",2,2,"","R.pool350",24,"S",4,FALSE,FALSE,TRUE,TRUE,FALSE,FALSE,NA,NA,FALSE
"758",799,"4","hand",5162,"E9pool",3,3,"hand","R.pool350",24,"S",4,TRUE,TRUE,TRUE,FALSE,FALSE,FALSE,0,FALSE,FALSE
"759",800,"4","deck",7582,"E9pool",0,0,"","R.pool350",25,"D",3,FALSE,FALSE,TRUE,TRUE,FALSE,FALSE,NA,NA,FALSE
"760",801,"4","slice",5806,"E9pool",1,1,"slice","R.pool350",25,"D",3,TRUE,TRUE,TRUE,FALSE,FALSE,FALSE,0,FALSE,FALSE
"761",802,"4","rat",6070,"E9pool",2,2,"rat","R.pool350",25,"D",3,TRUE,TRUE,TRUE,FALSE,FALSE,FALSE,0,FALSE,FALSE
"762",803,"4","mare",5655,"E9pool",0,0,"mare","R.pool350",26,"D",4,TRUE,TRUE,TRUE,FALSE,FALSE,FALSE,0,FALSE,FALSE
"763",804,"4","bell",5373,"E9pool",1,1,"bell","R.pool350",26,"D",4,TRUE,TRUE,TRUE,FALSE,FALSE,FALSE,0,FALSE,FALSE
"764",805,"4","brain",5631,"E9pool",2,2,"","R.pool350",26,"D",4,FALSE,FALSE,TRUE,TRUE,FALSE,FALSE,NA,NA,FALSE
"765",806,"4","beef",5671,"E9pool",3,3,"beef","R.pool350",26,"D",4,TRUE,TRUE,TRUE,FALSE,FALSE,FALSE,0,FALSE,FALSE
"766",807,"4","pie",6388,"E9pool",0,0,"","R.pool350",27,"S",5,FALSE,FALSE,TRUE,TRUE,FALSE,FALSE,NA,NA,FALSE
"767",808,"4","fly",5876,"E9pool",1,1,"","R.pool350",27,"S",5,FALSE,FALSE,TRUE,TRUE,FALSE,FALSE,NA,NA,FALSE
"768",809,"4","tie",6113,"E9pool",2,2,"tie","R.pool350",27,"S",5,TRUE,TRUE,TRUE,FALSE,FALSE,FALSE,0,FALSE,FALSE
"769",810,"4","sky",5566,"E9pool",3,3,"","R.pool350",27,"S",5,FALSE,FALSE,TRUE,TRUE,FALSE,FALSE,NA,NA,FALSE
"770",811,"4","eye",5224,"E9pool",4,4,"eye","R.pool350",27,"S",5,TRUE,TRUE,TRUE,FALSE,FALSE,FALSE,0,FALSE,FALSE
"771",312,"5","band",5232,"E4",0,0,"band","Ospan.reg",4,"S",4,TRUE,TRUE,TRUE,FALSE,FALSE,FALSE,0,FALSE,FALSE
"772",313,"5","land",3960,"E4",1,1,"","Ospan.reg",4,"S",4,FALSE,TRUE,TRUE,TRUE,TRUE,FALSE,1,TRUE,FALSE
"773",314,"5","stand",5093,"E4",2,2,"land","Ospan.reg",4,"S",4,FALSE,FALSE,TRUE,FALSE,FALSE,TRUE,NA,NA,FALSE
"774",315,"5","hand",7491,"E4",3,3,"hand","Ospan.reg",4,"S",4,TRUE,TRUE,TRUE,FALSE,FALSE,FALSE,0,FALSE,FALSE
"775",318,"5","king",5429,"E4",0,0,"king","Ospan.reg",5,"S",5,TRUE,TRUE,TRUE,FALSE,FALSE,FALSE,0,FALSE,FALSE
"776",319,"5","ring",5198,"E4",1,1,"ring","Ospan.reg",5,"S",5,TRUE,TRUE,TRUE,FALSE,FALSE,FALSE,0,FALSE,FALSE
"777",320,"5","spring",5136,"E4",2,2,"spring","Ospan.reg",5,"S",5,TRUE,TRUE,TRUE,FALSE,FALSE,FALSE,0,FALSE,FALSE
"778",321,"5","string",5245,"E4",3,3,"string","Ospan.reg",5,"S",5,TRUE,TRUE,TRUE,FALSE,FALSE,FALSE,0,FALSE,FALSE
"779",322,"5","wing",4124,"E4",4,4,"wing","Ospan.reg",5,"S",5,TRUE,TRUE,TRUE,FALSE,FALSE,FALSE,0,FALSE,FALSE
"780",324,"5","bread",4439,"E4",0,0,"head","Ospan.reg",6,"S",4,FALSE,TRUE,TRUE,FALSE,TRUE,FALSE,1,TRUE,FALSE
"781",325,"5","head",4406,"E4",1,1,"bread","Ospan.reg",6,"S",4,FALSE,TRUE,TRUE,FALSE,TRUE,FALSE,-1,FALSE,FALSE
"782",326,"5","thread",5424,"E4",2,2,"thread","Ospan.reg",6,"S",4,TRUE,TRUE,TRUE,FALSE,FALSE,FALSE,0,FALSE,FALSE
"783",327,"5","bed",4746,"E4",3,3,"bed","Ospan.reg",6,"S",4,TRUE,TRUE,TRUE,FALSE,FALSE,FALSE,0,FALSE,FALSE
"784",330,"5","doll",5082,"E4",0,0,"doll","Ospan.reg",7,"S",6,TRUE,TRUE,TRUE,FALSE,FALSE,FALSE,0,FALSE,FALSE
"785",331,"5","ball",4423,"E4",1,1,"ball","Ospan.reg",7,"S",6,TRUE,TRUE,TRUE,FALSE,FALSE,FALSE,0,FALSE,FALSE
"786",332,"5","shawl",4585,"E4",2,2,"shawl","Ospan.reg",7,"S",6,TRUE,TRUE,TRUE,FALSE,FALSE,FALSE,0,FALSE,FALSE
"787",333,"5","hall",4237,"E4",3,3,"","Ospan.reg",7,"S",6,FALSE,FALSE,TRUE,TRUE,FALSE,FALSE,NA,NA,FALSE
"788",334,"5","brawl",4805,"E4",4,4,"wall","Ospan.reg",7,"S",6,FALSE,FALSE,TRUE,FALSE,FALSE,TRUE,NA,NA,FALSE
"789",335,"5","wall",4534,"E4",5,NA,"","Ospan.reg",7,"S",6,FALSE,TRUE,TRUE,TRUE,TRUE,FALSE,-1,FALSE,FALSE
"790",336,"5","jar",4810,"E4",0,0,"bar","Ospan.reg",8,"S",5,FALSE,TRUE,TRUE,FALSE,TRUE,FALSE,1,TRUE,FALSE
"791",337,"5","bar",4650,"E4",1,1,"jar","Ospan.reg",8,"S",5,FALSE,TRUE,TRUE,FALSE,TRUE,FALSE,-1,FALSE,FALSE
"792",338,"5","car",5692,"E4",2,2,"","Ospan.reg",8,"S",5,FALSE,FALSE,TRUE,TRUE,FALSE,FALSE,NA,NA,FALSE
"793",339,"5","scar",5185,"E4",3,3,"","Ospan.reg",8,"S",5,FALSE,FALSE,TRUE,TRUE,FALSE,FALSE,NA,NA,FALSE
"794",340,"5","star",5652,"E4",4,4,"star","Ospan.reg",8,"S",5,TRUE,TRUE,TRUE,FALSE,FALSE,FALSE,0,FALSE,FALSE
"795",342,"5","boot",4671,"E4",0,0,"","Ospan.reg",9,"S",6,FALSE,FALSE,TRUE,TRUE,FALSE,FALSE,NA,NA,FALSE
"796",343,"5","suit",5230,"E4",1,1,"","Ospan.reg",9,"S",6,FALSE,FALSE,TRUE,TRUE,FALSE,FALSE,NA,NA,FALSE
"797",344,"5","flute",5991,"E4",2,2,"flute","Ospan.reg",9,"S",6,TRUE,TRUE,TRUE,FALSE,FALSE,FALSE,0,FALSE,FALSE
"798",345,"5","loot",5840,"E4",3,3,"root","Ospan.reg",9,"S",6,FALSE,FALSE,TRUE,FALSE,FALSE,TRUE,NA,NA,FALSE
"799",346,"5","root",6120,"E4",4,4,"brute","Ospan.reg",9,"S",6,FALSE,TRUE,TRUE,FALSE,TRUE,FALSE,-1,FALSE,FALSE
"800",347,"5","brute",5964,"E4",5,NA,"","Ospan.reg",9,"S",6,FALSE,TRUE,TRUE,TRUE,TRUE,FALSE,-1,FALSE,FALSE
"801",348,"5","cream",5188,"E4",0,0,"cream","Ospan.reg",10,"S",3,TRUE,TRUE,TRUE,FALSE,FALSE,FALSE,0,FALSE,FALSE
"802",349,"5","team",5518,"E4",1,1,"team","Ospan.reg",10,"S",3,TRUE,TRUE,TRUE,FALSE,FALSE,FALSE,0,FALSE,FALSE
"803",350,"5","steam",5747,"E4",2,2,"steam","Ospan.reg",10,"S",3,TRUE,TRUE,TRUE,FALSE,FALSE,FALSE,0,FALSE,FALSE
"804",354,"5","blouse",5672,"E4",0,0,"blouse","Ospan.reg",11,"S",3,TRUE,TRUE,TRUE,FALSE,FALSE,FALSE,0,FALSE,FALSE
"805",355,"5","house",5325,"E4",1,1,"house","Ospan.reg",11,"S",3,TRUE,TRUE,TRUE,FALSE,FALSE,FALSE,0,FALSE,FALSE
"806",356,"5","mouse",5186,"E4",2,2,"mouse","Ospan.reg",11,"S",3,TRUE,TRUE,TRUE,FALSE,FALSE,FALSE,0,FALSE,FALSE
"807",360,"5","deer",5607,"E4",0,0,"deer","Ospan.reg",12,"S",4,TRUE,TRUE,TRUE,FALSE,FALSE,FALSE,0,FALSE,FALSE
"808",361,"5","sphere",3480,"E4",1,1,"sphere","Ospan.reg",12,"S",4,TRUE,TRUE,TRUE,FALSE,FALSE,FALSE,0,FALSE,FALSE
"809",362,"5","ear",5873,"E4",2,2,"ear","Ospan.reg",12,"S",4,TRUE,TRUE,TRUE,FALSE,FALSE,FALSE,0,FALSE,FALSE
"810",363,"5","tear",3983,"E4",3,3,"tear","Ospan.reg",12,"S",4,TRUE,TRUE,TRUE,FALSE,FALSE,FALSE,0,FALSE,FALSE
"811",366,"5","pie",4310,"E4",0,0,"pie","Ospan.reg",13,"S",5,TRUE,TRUE,TRUE,FALSE,FALSE,FALSE,0,FALSE,FALSE
"812",367,"5","fly",5628,"E4",1,1,"fly","Ospan.reg",13,"S",5,TRUE,TRUE,TRUE,FALSE,FALSE,FALSE,0,FALSE,FALSE
"813",368,"5","tie",5524,"E4",2,2,"tie","Ospan.reg",13,"S",5,TRUE,TRUE,TRUE,FALSE,FALSE,FALSE,0,FALSE,FALSE
"814",369,"5","sky",5288,"E4",3,3,"sky","Ospan.reg",13,"S",5,TRUE,TRUE,TRUE,FALSE,FALSE,FALSE,0,FALSE,FALSE
"815",370,"5","eye",4911,"E4",4,4,"","Ospan.reg",13,"S",5,FALSE,FALSE,TRUE,TRUE,FALSE,FALSE,NA,NA,FALSE
"816",372,"5","bone",5631,"E4",0,0,"bone","Ospan.reg",14,"S",3,TRUE,TRUE,TRUE,FALSE,FALSE,FALSE,0,FALSE,FALSE
"817",373,"5","phone",4694,"E4",1,1,"phone","Ospan.reg",14,"S",3,TRUE,TRUE,TRUE,FALSE,FALSE,FALSE,0,FALSE,FALSE
"818",374,"5","stone",5828,"E4",2,2,"stone","Ospan.reg",14,"S",3,TRUE,TRUE,TRUE,FALSE,FALSE,FALSE,0,FALSE,FALSE
"819",378,"5","mail",4468,"E4",0,0,"mail","Ospan.reg",15,"S",6,TRUE,TRUE,TRUE,FALSE,FALSE,FALSE,0,FALSE,FALSE
"820",379,"5","sail",5979,"E4",1,1,"","Ospan.reg",15,"S",6,FALSE,FALSE,TRUE,TRUE,FALSE,FALSE,NA,NA,FALSE
"821",380,"5","trail",6837,"E4",2,2,"","Ospan.reg",15,"S",6,FALSE,FALSE,TRUE,TRUE,FALSE,FALSE,NA,NA,FALSE
"822",381,"5","wail",4981,"E4",3,3,"","Ospan.reg",15,"S",6,FALSE,FALSE,TRUE,TRUE,FALSE,FALSE,NA,NA,FALSE
"823",382,"5","tail",5431,"E4",4,4,"","Ospan.reg",15,"S",6,FALSE,FALSE,TRUE,TRUE,FALSE,FALSE,NA,NA,FALSE
"824",383,"5","jail",4704,"E4",5,5,"jail","Ospan.reg",15,"S",6,TRUE,TRUE,TRUE,FALSE,FALSE,FALSE,0,FALSE,FALSE
"825",384,"5","spice",5336,"E4",0,0,"","Ospan.reg",16,"D",5,FALSE,FALSE,TRUE,TRUE,FALSE,FALSE,NA,NA,FALSE
"826",385,"5","heat",5060,"E4",1,1,"shape","Ospan.reg",16,"D",5,FALSE,FALSE,TRUE,FALSE,FALSE,TRUE,NA,NA,FALSE
"827",386,"5","shape",6187,"E4",2,2,"pear","Ospan.reg",16,"D",5,FALSE,TRUE,TRUE,FALSE,TRUE,FALSE,-1,FALSE,FALSE
"828",387,"5","pear",5797,"E4",3,3,"guest","Ospan.reg",16,"D",5,FALSE,TRUE,TRUE,FALSE,TRUE,FALSE,-1,FALSE,FALSE
"829",388,"5","guest",5679,"E4",4,NA,"","Ospan.reg",16,"D",5,FALSE,TRUE,TRUE,TRUE,TRUE,FALSE,-1,FALSE,FALSE
"830",390,"5","ant",4707,"E4",0,0,"ant","Ospan.reg",17,"D",6,TRUE,TRUE,TRUE,FALSE,FALSE,FALSE,0,FALSE,FALSE
"831",391,"5","air",5488,"E4",1,1,"air","Ospan.reg",17,"D",6,TRUE,TRUE,TRUE,FALSE,FALSE,FALSE,0,FALSE,FALSE
"832",392,"5","ink",5790,"E4",2,2,"ink","Ospan.reg",17,"D",6,TRUE,TRUE,TRUE,FALSE,FALSE,FALSE,0,FALSE,FALSE
"833",393,"5","cloud",5870,"E4",3,3,"seat","Ospan.reg",17,"D",6,FALSE,FALSE,TRUE,FALSE,FALSE,TRUE,NA,NA,FALSE
"834",394,"5","seat",6526,"E4",4,4,"breath","Ospan.reg",17,"D",6,FALSE,TRUE,TRUE,FALSE,TRUE,FALSE,-1,FALSE,FALSE
"835",395,"5","breath",4641,"E4",5,NA,"","Ospan.reg",17,"D",6,FALSE,TRUE,TRUE,TRUE,TRUE,FALSE,-1,FALSE,FALSE
"836",396,"5","deck",4808,"E4",0,0,"deck","Ospan.reg",18,"D",3,TRUE,TRUE,TRUE,FALSE,FALSE,FALSE,0,FALSE,FALSE
"837",397,"5","slice",4920,"E4",1,1,"slice","Ospan.reg",18,"D",3,TRUE,TRUE,TRUE,FALSE,FALSE,FALSE,0,FALSE,FALSE
"838",398,"5","rat",6246,"E4",2,2,"rat","Ospan.reg",18,"D",3,TRUE,TRUE,TRUE,FALSE,FALSE,FALSE,0,FALSE,FALSE
"839",402,"5","mare",4293,"E4",0,0,"mare","Ospan.reg",19,"D",4,TRUE,TRUE,TRUE,FALSE,FALSE,FALSE,0,FALSE,FALSE
"840",403,"5","bell",5043,"E4",1,1,"bell","Ospan.reg",19,"D",4,TRUE,TRUE,TRUE,FALSE,FALSE,FALSE,0,FALSE,FALSE
"841",404,"5","brain",5035,"E4",2,2,"brain","Ospan.reg",19,"D",4,TRUE,TRUE,TRUE,FALSE,FALSE,FALSE,0,FALSE,FALSE
"842",405,"5","beef",5052,"E4",3,3,"beef","Ospan.reg",19,"D",4,TRUE,TRUE,TRUE,FALSE,FALSE,FALSE,0,FALSE,FALSE
"843",408,"5","path",4933,"E4",0,0,"path","Ospan.reg",20,"D",5,TRUE,TRUE,TRUE,FALSE,FALSE,FALSE,0,FALSE,FALSE
"844",409,"5","nest",7169,"E4",1,1,"nest","Ospan.reg",20,"D",5,TRUE,TRUE,TRUE,FALSE,FALSE,FALSE,0,FALSE,FALSE
"845",410,"5","square",5665,"E4",2,2,"square","Ospan.reg",20,"D",5,TRUE,TRUE,TRUE,FALSE,FALSE,FALSE,0,FALSE,FALSE
"846",411,"5","wood",4953,"E4",3,3,"wood","Ospan.reg",20,"D",5,TRUE,TRUE,TRUE,FALSE,FALSE,FALSE,0,FALSE,FALSE
"847",412,"5","beach",5237,"E4",4,4,"beach","Ospan.reg",20,"D",5,TRUE,TRUE,TRUE,FALSE,FALSE,FALSE,0,FALSE,FALSE
"848",414,"5","rice",5361,"E4",0,0,"rice","Ospan.reg",21,"D",3,TRUE,TRUE,TRUE,FALSE,FALSE,FALSE,0,FALSE,FALSE
"849",415,"5","cat",4732,"E4",1,1,"cat","Ospan.reg",21,"D",3,TRUE,TRUE,TRUE,FALSE,FALSE,FALSE,0,FALSE,FALSE
"850",416,"5","trash",5666,"E4",2,2,"trash","Ospan.reg",21,"D",3,TRUE,TRUE,TRUE,FALSE,FALSE,FALSE,0,FALSE,FALSE
"851",420,"5","neck",3954,"E4",0,0,"neck","Ospan.reg",22,"D",4,TRUE,TRUE,TRUE,FALSE,FALSE,FALSE,0,FALSE,FALSE
"852",421,"5","town",4734,"E4",1,1,"town","Ospan.reg",22,"D",4,TRUE,TRUE,TRUE,FALSE,FALSE,FALSE,0,FALSE,FALSE
"853",422,"5","hat",4186,"E4",2,2,"hat","Ospan.reg",22,"D",4,TRUE,TRUE,TRUE,FALSE,FALSE,FALSE,0,FALSE,FALSE
"854",423,"5","street",7102,"E4",3,3,"street","Ospan.reg",22,"D",4,TRUE,TRUE,TRUE,FALSE,FALSE,FALSE,0,FALSE,FALSE
"855",426,"5","chest",5093,"E4",0,0,"chest","Ospan.reg",23,"D",4,TRUE,TRUE,TRUE,FALSE,FALSE,FALSE,0,FALSE,FALSE
"856",427,"5","lane",4730,"E4",1,1,"lane","Ospan.reg",23,"D",4,TRUE,TRUE,TRUE,FALSE,FALSE,FALSE,0,FALSE,FALSE
"857",428,"5","hair",4680,"E4",2,2,"hair","Ospan.reg",23,"D",4,TRUE,TRUE,TRUE,FALSE,FALSE,FALSE,0,FALSE,FALSE
"858",429,"5","crown",6207,"E4",3,3,"crown","Ospan.reg",23,"D",4,TRUE,TRUE,TRUE,FALSE,FALSE,FALSE,0,FALSE,FALSE
"859",432,"5","toy",5080,"E4",0,0,"toy","Ospan.reg",24,"D",3,TRUE,TRUE,TRUE,FALSE,FALSE,FALSE,0,FALSE,FALSE
"860",433,"5","wreck",5086,"E4",1,1,"wreck","Ospan.reg",24,"D",3,TRUE,TRUE,TRUE,FALSE,FALSE,FALSE,0,FALSE,FALSE
"861",434,"5","frown",4814,"E4",2,2,"frown","Ospan.reg",24,"D",3,TRUE,TRUE,TRUE,FALSE,FALSE,FALSE,0,FALSE,FALSE
"862",438,"5","coin",4431,"E4",0,0,"","Ospan.reg",25,"D",6,FALSE,FALSE,TRUE,TRUE,FALSE,FALSE,NA,NA,FALSE
"863",439,"5","film",4671,"E4",1,1,"","Ospan.reg",25,"D",6,FALSE,FALSE,TRUE,TRUE,FALSE,FALSE,NA,NA,FALSE
"864",440,"5","leaf",5159,"E4",2,2,"","Ospan.reg",25,"D",6,FALSE,TRUE,TRUE,TRUE,TRUE,FALSE,2,TRUE,FALSE
"865",441,"5","train",6666,"E4",3,3,"","Ospan.reg",25,"D",6,FALSE,FALSE,TRUE,TRUE,FALSE,FALSE,NA,NA,FALSE
"866",442,"5","map",5553,"E4",4,4,"leaf","Ospan.reg",25,"D",6,FALSE,FALSE,TRUE,FALSE,FALSE,TRUE,NA,NA,FALSE
"867",443,"5","art",4707,"E4",5,5,"art","Ospan.reg",25,"D",6,TRUE,TRUE,TRUE,FALSE,FALSE,FALSE,0,FALSE,FALSE
"868",444,"5","beard",5348,"E4",0,0,"beard","Ospan.reg",26,"D",5,TRUE,TRUE,TRUE,FALSE,FALSE,FALSE,0,FALSE,FALSE
"869",445,"5","hill",6639,"E4",1,1,"hill","Ospan.reg",26,"D",5,TRUE,TRUE,TRUE,FALSE,FALSE,FALSE,0,FALSE,FALSE
"870",446,"5","dirt",6335,"E4",2,2,"dirt","Ospan.reg",26,"D",5,TRUE,TRUE,TRUE,FALSE,FALSE,FALSE,0,FALSE,FALSE
"871",447,"5","card",5842,"E4",3,3,"card","Ospan.reg",26,"D",5,TRUE,TRUE,TRUE,FALSE,FALSE,FALSE,0,FALSE,FALSE
"872",448,"5","line",6138,"E4",4,4,"line","Ospan.reg",26,"D",5,TRUE,TRUE,TRUE,FALSE,FALSE,FALSE,0,FALSE,FALSE
"873",450,"5","shell",5644,"E4",0,0,"shell","Ospan.reg",27,"D",6,TRUE,TRUE,TRUE,FALSE,FALSE,FALSE,0,FALSE,FALSE
"874",451,"5","tree",5492,"E4",1,1,"tree","Ospan.reg",27,"D",6,TRUE,TRUE,TRUE,FALSE,FALSE,FALSE,0,FALSE,FALSE
"875",452,"5","bowl",5370,"E4",2,2,"bowl","Ospan.reg",27,"D",6,TRUE,TRUE,TRUE,FALSE,FALSE,FALSE,0,FALSE,FALSE
"876",453,"5","broom",5748,"E4",3,3,"","Ospan.reg",27,"D",6,FALSE,FALSE,TRUE,TRUE,FALSE,FALSE,NA,NA,FALSE
"877",454,"5","test",5329,"E4",4,4,"test","Ospan.reg",27,"D",6,TRUE,TRUE,TRUE,FALSE,FALSE,FALSE,0,FALSE,FALSE
"878",455,"5","ground",4893,"E4",5,5,"ground","Ospan.reg",27,"D",6,TRUE,TRUE,TRUE,FALSE,FALSE,FALSE,0,FALSE,FALSE
"879",820,"5","neck",5690,"E9pool",0,0,"neck","R.pool350",4,"D",4,TRUE,TRUE,TRUE,FALSE,FALSE,FALSE,0,FALSE,FALSE
"880",821,"5","town",5350,"E9pool",1,1,"town","R.pool350",4,"D",4,TRUE,TRUE,TRUE,FALSE,FALSE,FALSE,0,FALSE,FALSE
"881",822,"5","hat",6569,"E9pool",2,2,"hat","R.pool350",4,"D",4,TRUE,TRUE,TRUE,FALSE,FALSE,FALSE,0,FALSE,FALSE
"882",823,"5","street",8098,"E9pool",3,3,"street","R.pool350",4,"D",4,TRUE,TRUE,TRUE,FALSE,FALSE,FALSE,0,FALSE,FALSE
"883",1664,"5","",NA,"E9pool",NA,4,"","R.pool350",4,"D",4,FALSE,FALSE,FALSE,FALSE,FALSE,TRUE,NA,NA,FALSE
"884",824,"5","doll",6276,"E9pool",0,0,"doll","R.pool350",5,"S",6,TRUE,TRUE,TRUE,FALSE,FALSE,FALSE,0,FALSE,FALSE
"885",825,"5","ball",6121,"E9pool",1,1,"hall","R.pool350",5,"S",6,FALSE,FALSE,TRUE,FALSE,FALSE,TRUE,NA,NA,FALSE
"886",826,"5","shawl",6564,"E9pool",2,2,"shawl","R.pool350",5,"S",6,TRUE,TRUE,TRUE,FALSE,FALSE,FALSE,0,FALSE,FALSE
"887",827,"5","hall",8950,"E9pool",3,3,"brawl","R.pool350",5,"S",6,FALSE,TRUE,TRUE,FALSE,TRUE,FALSE,-2,FALSE,FALSE
"888",828,"5","brawl",7406,"E9pool",4,4,"wall","R.pool350",5,"S",6,FALSE,TRUE,TRUE,FALSE,TRUE,FALSE,-1,FALSE,FALSE
"889",829,"5","wall",5980,"E9pool",5,5,"all","R.pool350",5,"S",6,FALSE,TRUE,TRUE,FALSE,TRUE,FALSE,-1,FALSE,FALSE
"890",1678,"5","",NA,"E9pool",NA,6,"","R.pool350",5,"S",6,FALSE,FALSE,FALSE,FALSE,FALSE,TRUE,NA,NA,FALSE
"891",830,"5","rice",6706,"E9pool",0,0,"rice","R.pool350",6,"D",3,TRUE,TRUE,TRUE,FALSE,FALSE,FALSE,0,FALSE,FALSE
"892",831,"5","cat",5765,"E9pool",1,1,"cat","R.pool350",6,"D",3,TRUE,TRUE,TRUE,FALSE,FALSE,FALSE,0,FALSE,FALSE
"893",832,"5","trash",5767,"E9pool",2,2,"trash","R.pool350",6,"D",3,TRUE,TRUE,TRUE,FALSE,FALSE,FALSE,0,FALSE,FALSE
"894",1652,"5","",NA,"E9pool",NA,3,"","R.pool350",6,"D",3,FALSE,FALSE,FALSE,FALSE,FALSE,TRUE,NA,NA,FALSE
"895",833,"5","bread",5604,"E9pool",0,0,"head","R.pool350",7,"S",4,FALSE,TRUE,TRUE,FALSE,TRUE,FALSE,1,TRUE,FALSE
"896",834,"5","head",5116,"E9pool",1,1,"bread","R.pool350",7,"S",4,FALSE,TRUE,TRUE,FALSE,TRUE,FALSE,-1,FALSE,FALSE
"897",835,"5","thread",5816,"E9pool",2,2,"bed","R.pool350",7,"S",4,FALSE,FALSE,TRUE,FALSE,FALSE,TRUE,NA,NA,FALSE
"898",836,"5","bed",6544,"E9pool",3,NA,"","R.pool350",7,"S",4,FALSE,TRUE,TRUE,TRUE,TRUE,FALSE,-1,FALSE,FALSE
"899",837,"5","king",5439,"E9pool",0,0,"king","R.pool350",8,"S",5,TRUE,TRUE,TRUE,FALSE,FALSE,FALSE,0,FALSE,FALSE
"900",838,"5","ring",6062,"E9pool",1,1,"ring","R.pool350",8,"S",5,TRUE,TRUE,TRUE,FALSE,FALSE,FALSE,0,FALSE,FALSE
"901",839,"5","spring",7900,"E9pool",2,2,"spring","R.pool350",8,"S",5,TRUE,TRUE,TRUE,FALSE,FALSE,FALSE,0,FALSE,FALSE
"902",840,"5","string",6375,"E9pool",3,3,"string","R.pool350",8,"S",5,TRUE,TRUE,TRUE,FALSE,FALSE,FALSE,0,FALSE,FALSE
"903",841,"5","wing",6239,"E9pool",4,4,"wing","R.pool350",8,"S",5,TRUE,TRUE,TRUE,FALSE,FALSE,FALSE,0,FALSE,FALSE
"904",1670,"5","",NA,"E9pool",NA,5,"","R.pool350",8,"S",5,FALSE,FALSE,FALSE,FALSE,FALSE,TRUE,NA,NA,FALSE
"905",842,"5","coin",6437,"E9pool",0,0,"coin","R.pool350",9,"D",6,TRUE,TRUE,TRUE,FALSE,FALSE,FALSE,0,FALSE,FALSE
"906",843,"5","film",6226,"E9pool",1,1,"film","R.pool350",9,"D",6,TRUE,TRUE,TRUE,FALSE,FALSE,FALSE,0,FALSE,FALSE
