,Subject,TBR,dist_RT,folder,inpos,outpos,resp,task,trialnum,trialtype
0,17.0,farm,5283.0,E9poolb,0.0,0,farm,R.poolb,0.0,P
1,17.0,arm,5329.0,E9poolb,1.0,1,arm,R.poolb,0.0,P
2,17.0,hood,5005.0,E9poolb,0.0,0,hood,R.poolb,1.0,P
3,17.0,wood,4438.0,E9poolb,1.0,1,wood,R.poolb,1.0,P
4,17.0,bath,5081.0,E9poolb,0.0,0,bath,R.poolb,2.0,P
5,17.0,dawn,5512.0,E9poolb,1.0,1,dawn,R.poolb,2.0,P
6,17.0,earth,4750.0,E9poolb,0.0,0,earth,R.poolb,3.0,P
7,17.0,peach,5042.0,E9poolb,1.0,1,peach,R.poolb,3.0,P
8,17.0,coin,5357.0,E9poolb,0.0,0,earth,R.poolb,4.0,D
9,17.0,film,5679.0,E9poolb,1.0,1,film,R.poolb,4.0,D
10,17.0,leaf,7069.0,E9poolb,2.0,2,coal,R.poolb,4.0,D
11,17.0,train,4905.0,E9poolb,3.0,3,tend,R.poolb,4.0,D
12,17.0,map,5525.0,E9poolb,4.0,4,,R.poolb,4.0,D
13,17.0,art,5994.0,E9poolb,5.0,5,,R.poolb,4.0,D
14,17.0,doll,5254.0,E9poolb,0.0,0,ball,R.poolb,5.0,S
15,17.0,ball,4883.0,E9poolb,1.0,1,hall,R.poolb,5.0,S
16,17.0,shawl,5449.0,E9poolb,2.0,2,shawl,R.poolb,5.0,S
17,17.0,hall,5279.0,E9poolb,3.0,3,dawl,R.poolb,5.0,S
18,17.0,brawl,5606.0,E9poolb,4.0,4,,R.poolb,5.0,S
19,17.0,wall,4902.0,E9poolb,5.0,,,R.poolb,5.0,S
20,17.0,king,4850.0,E9poolb,0.0,0,king,R.poolb,6.0,S
21,17.0,ring,4393.0,E9poolb,1.0,1,ring,R.poolb,6.0,S
22,17.0,spring,4651.0,E9poolb,2.0,2,string,R.poolb,6.0,S
23,17.0,string,5435.0,E9poolb,3.0,3,spring,R.poolb,6.0,S
24,17.0,wing,5450.0,E9poolb,4.0,4,wing,R.poolb,6.0,S
25,17.0,cream,4805.0,E9poolb,0.0,0,cream,R.poolb,7.0,S
26,17.0,team,4958.0,E9poolb,1.0,1,team,R.poolb,7.0,S
27,17.0,steam,4961.0,E9poolb,2.0,2,steam,R.poolb,7.0,S
28,17.0,bread,5576.0,E9poolb,0.0,0,bread,R.poolb,8.0,S
29,17.0,head,4689.0,E9poolb,1.0,1,head,R.poolb,8.0,S
30,17.0,thread,4870.0,E9poolb,2.0,2,bed,R.poolb,8.0,S
31,17.0,bed,5837.0,E9poolb,3.0,3,shed,R.poolb,8.0,S
32,17.0,neck,5288.0,E9poolb,0.0,0,neck,R.poolb,9.0,D
33,17.0,town,5558.0,E9poolb,1.0,1,town,R.poolb,9.0,D
34,17.0,hat,5233.0,E9poolb,2.0,2,coal,R.poolb,9.0,D
35,17.0,street,5255.0,E9poolb,3.0,3,street,R.poolb,9.0,D
36,17.0,rice,4950.0,E9poolb,0.0,0,rice,R.poolb,10.0,D
37,17.0,cat,5058.0,E9poolb,1.0,1,yeast,R.poolb,10.0,D
38,17.0,trash,4680.0,E9poolb,2.0,2,trash,R.poolb,10.0,D
39,17.0,path,5097.0,E9poolb,0.0,0,,R.poolb,11.0,D
40,17.0,nest,4854.0,E9poolb,1.0,1,,R.poolb,11.0,D
41,17.0,square,5733.0,E9poolb,2.0,2,,R.poolb,11.0,D
42,17.0,wood,4271.0,E9poolb,3.0,3,beach,R.poolb,11.0,D
43,17.0,beach,5423.0,E9poolb,4.0,4,wood,R.poolb,11.0,D
44,17.0,boot,5725.0,E9poolb,0.0,0,boot,R.poolb,12.0,S
45,17.0,suit,5441.0,E9poolb,1.0,1,lute,R.poolb,12.0,S
46,17.0,flute,5272.0,E9poolb,2.0,2,shoot,R.poolb,12.0,S
47,17.0,loot,5917.0,E9poolb,3.0,3,flute,R.poolb,12.0,S
48,17.0,root,4993.0,E9poolb,4.0,,,R.poolb,12.0,S
49,17.0,brute,5138.0,E9poolb,5.0,,,R.poolb,12.0,S
50,17.0,blouse,5377.0,E9poolb,0.0,0,blouse,R.poolb,13.0,S
51,17.0,house,4907.0,E9poolb,1.0,1,house,R.poolb,13.0,S
52,17.0,mouse,6232.0,E9poolb,2.0,2,mouse,R.poolb,13.0,S
53,17.0,jar,4857.0,E9poolb,0.0,0,jar,R.poolb,14.0,S
54,17.0,bar,4992.0,E9poolb,1.0,1,bar,R.poolb,14.0,S
55,17.0,car,4112.0,E9poolb,2.0,2,car,R.poolb,14.0,S
56,17.0,scar,4630.0,E9poolb,3.0,3,star,R.poolb,14.0,S
57,17.0,star,5855.0,E9poolb,4.0,4,,R.poolb,14.0,S
58,17.0,toy,4864.0,E9poolb,0.0,0,,R.poolb,15.0,D
59,17.0,wreck,4871.0,E9poolb,1.0,1,toy,R.poolb,15.0,D
60,17.0,frown,4412.0,E9poolb,2.0,2,frown,R.poolb,15.0,D
61,17.0,ant,5270.0,E9poolb,0.0,0,,R.poolb,16.0,D
62,17.0,air,5460.0,E9poolb,1.0,1,,R.poolb,16.0,D
63,17.0,ink,4804.0,E9poolb,2.0,2,cloud,R.poolb,16.0,D
64,17.0,cloud,5365.0,E9poolb,3.0,3,breath,R.poolb,16.0,D
65,17.0,seat,5287.0,E9poolb,4.0,4,,R.poolb,16.0,D
66,17.0,breath,5844.0,E9poolb,5.0,,,R.poolb,16.0,D
67,17.0,spice,5721.0,E9poolb,0.0,0,,R.poolb,17.0,D
68,17.0,heat,4829.0,E9poolb,1.0,1,,R.poolb,17.0,D
69,17.0,shape,5357.0,E9poolb,2.0,2,,R.poolb,17.0,D
70,17.0,pear,5247.0,E9poolb,3.0,3,,R.poolb,17.0,D
71,17.0,guest,4519.0,E9poolb,4.0,4,guest,R.poolb,17.0,D
72,17.0,chest,5235.0,E9poolb,0.0,0,,R.poolb,18.0,D
73,17.0,lane,5258.0,E9poolb,1.0,1,,R.poolb,18.0,D
74,17.0,hair,4145.0,E9poolb,2.0,2,crown,R.poolb,18.0,D
75,17.0,crown,4860.0,E9poolb,3.0,,,R.poolb,18.0,D
76,17.0,deer,5057.0,E9poolb,0.0,0,,R.poolb,19.0,S
77,17.0,sphere,4984.0,E9poolb,1.0,1,,R.poolb,19.0,S
78,17.0,ear,4977.0,E9poolb,2.0,2,ear,R.poolb,19.0,S
79,17.0,tear,4516.0,E9poolb,3.0,3,tear,R.poolb,19.0,S
80,17.0,beard,5679.0,E9poolb,0.0,0,crown,R.poolb,20.0,D
81,17.0,hill,4708.0,E9poolb,1.0,1,hill,R.poolb,20.0,D
82,17.0,dirt,4458.0,E9poolb,2.0,2,deer,R.poolb,20.0,D
83,17.0,card,5417.0,E9poolb,3.0,3,hear,R.poolb,20.0,D
84,17.0,line,4353.0,E9poolb,4.0,,,R.poolb,20.0,D
85,17.0,bone,5156.0,E9poolb,0.0,0,cook,R.poolb,21.0,S
86,17.0,phone,4359.0,E9poolb,1.0,1,beard,R.poolb,21.0,S
87,17.0,stone,4977.0,E9poolb,2.0,2,stone,R.poolb,21.0,S
88,17.0,pie,4455.0,E9poolb,0.0,0,pie,R.poolb,22.0,S
89,17.0,fly,5383.0,E9poolb,1.0,1,cry,R.poolb,22.0,S
90,17.0,tie,4416.0,E9poolb,2.0,2,try,R.poolb,22.0,S
91,17.0,sky,4376.0,E9poolb,3.0,3,eye,R.poolb,22.0,S
92,17.0,eye,5779.0,E9poolb,4.0,,,R.poolb,22.0,S
93,17.0,deck,5154.0,E9poolb,0.0,0,book,R.poolb,23.0,D
94,17.0,slice,5045.0,E9poolb,1.0,1,ate,R.poolb,23.0,D
95,17.0,rat,4355.0,E9poolb,2.0,2,rat,R.poolb,23.0,D
96,17.0,mare,5627.0,E9poolb,0.0,0,coal,R.poolb,24.0,D
97,17.0,bell,4650.0,E9poolb,1.0,1,jar,R.poolb,24.0,D
98,17.0,brain,4825.0,E9poolb,2.0,2,beef,R.poolb,24.0,D
99,17.0,beef,4498.0,E9poolb,3.0,,,R.poolb,24.0,D
100,17.0,shell,4500.0,E9poolb,0.0,0,town,R.poolb,25.0,D
101,17.0,tree,4322.0,E9poolb,1.0,1,stress,R.poolb,25.0,D
102,17.0,bowl,5471.0,E9poolb,2.0,2,math,R.poolb,25.0,D
103,17.0,broom,4516.0,E9poolb,3.0,3,ground,R.poolb,25.0,D
104,17.0,test,4305.0,E9poolb,4.0,4,tree,R.poolb,25.0,D
105,17.0,ground,4366.0,E9poolb,5.0,,,R.poolb,25.0,D
106,17.0,band,5293.0,E9poolb,0.0,0,band,R.poolb,26.0,S
107,17.0,land,4817.0,E9poolb,1.0,1,stand,R.poolb,26.0,S
108,17.0,stand,5299.0,E9poolb,2.0,2,land,R.poolb,26.0,S
109,17.0,hand,5040.0,E9poolb,3.0,3,hand,R.poolb,26.0,S
110,17.0,mail,4614.0,E9poolb,0.0,0,trail,R.poolb,27.0,S
111,17.0,sail,4367.0,E9poolb,1.0,1,tail,R.poolb,27.0,S
112,17.0,trail,4226.0,E9poolb,2.0,2,,R.poolb,27.0,S
113,17.0,wail,4692.0,E9poolb,3.0,3,,R.poolb,27.0,S
114,17.0,tail,5081.0,E9poolb,4.0,4,jail,R.poolb,27.0,S
115,17.0,jail,4848.0,E9poolb,5.0,,,R.poolb,27.0,S
116,31.0,bath,6627.0,E9poolb,0.0,0,bathdawn,R.poolb,0.0,P
117,31.0,dawn,6945.0,E9poolb,1.0,,,R.poolb,0.0,P
118,31.0,farm,7109.0,E9poolb,0.0,0,farmarm,R.poolb,1.0,P
119,31.0,arm,5669.0,E9poolb,1.0,,,R.poolb,1.0,P
120,31.0,hood,4871.0,E9poolb,0.0,0,hoodwood,R.poolb,2.0,P
121,31.0,wood,5086.0,E9poolb,1.0,,,R.poolb,2.0,P
122,31.0,earth,5752.0,E9poolb,0.0,0,earthpeach,R.poolb,3.0,P
123,31.0,peach,4321.0,E9poolb,1.0,,,R.poolb,3.0,P
124,31.0,neck,4872.0,E9poolb,0.0,0,neck,R.poolb,4.0,D
125,31.0,town,4525.0,E9poolb,1.0,1,hat,R.poolb,4.0,D
126,31.0,hat,5987.0,E9poolb,2.0,2,ate,R.poolb,4.0,D
127,31.0,street,6115.0,E9poolb,3.0,,,R.poolb,4.0,D
128,31.0,blouse,5138.0,E9poolb,0.0,0,blouse,R.poolb,5.0,S
129,31.0,house,4837.0,E9poolb,1.0,1,house,R.poolb,5.0,S
130,31.0,mouse,4869.0,E9poolb,2.0,2,mouse,R.poolb,5.0,S
131,31.0,doll,5064.0,E9poolb,0.0,0,shawl,R.poolb,6.0,S
132,31.0,ball,4263.0,E9poolb,1.0,1,fall,R.poolb,6.0,S
133,31.0,shawl,5182.0,E9poolb,2.0,2,wall,R.poolb,6.0,S
134,31.0,hall,4976.0,E9poolb,3.0,,,R.poolb,6.0,S
135,31.0,brawl,7506.0,E9poolb,4.0,,,R.poolb,6.0,S
136,31.0,wall,5708.0,E9poolb,5.0,,,R.poolb,6.0,S
137,31.0,bread,5138.0,E9poolb,0.0,0,head,R.poolb,7.0,S
138,31.0,head,4917.0,E9poolb,1.0,1,bread,R.poolb,7.0,S
139,31.0,thread,4921.0,E9poolb,2.0,2,fed,R.poolb,7.0,S
140,31.0,bed,5342.0,E9poolb,3.0,,,R.poolb,7.0,S
141,31.0,king,4814.0,E9poolb,0.0,0,ring,R.poolb,8.0,S
142,31.0,ring,5223.0,E9poolb,1.0,1,king,R.poolb,8.0,S
143,31.0,spring,5566.0,E9poolb,2.0,2,string,R.poolb,8.0,S
144,31.0,string,5280.0,E9poolb,3.0,,,R.poolb,8.0,S
145,31.0,wing,4751.0,E9poolb,4.0,,,R.poolb,8.0,S
146,31.0,coin,4912.0,E9poolb,0.0,0,leaf,R.poolb,9.0,D
147,31.0,film,4948.0,E9poolb,1.0,1,map,R.poolb,9.0,D
148,31.0,leaf,6000.0,E9poolb,2.0,2,art,R.poolb,9.0,D
149,31.0,train,5191.0,E9poolb,3.0,,,R.poolb,9.0,D
150,31.0,map,5368.0,E9poolb,4.0,,,R.poolb,9.0,D
151,31.0,art,5754.0,E9poolb,5.0,,,R.poolb,9.0,D
152,31.0,rice,4691.0,E9poolb,0.0,0,rice,R.poolb,10.0,D
153,31.0,cat,4601.0,E9poolb,1.0,1,cat,R.poolb,10.0,D
154,31.0,trash,5018.0,E9poolb,2.0,2,,R.poolb,10.0,D
155,31.0,path,4480.0,E9poolb,0.0,0,path,R.poolb,11.0,D
156,31.0,nest,4543.0,E9poolb,1.0,1,nest,R.poolb,11.0,D
157,31.0,square,5259.0,E9poolb,2.0,2,square,R.poolb,11.0,D
158,31.0,wood,5026.0,E9poolb,3.0,3,beach,R.poolb,11.0,D
159,31.0,beach,6530.0,E9poolb,4.0,,,R.poolb,11.0,D
160,31.0,jar,5010.0,E9poolb,0.0,0,jar,R.poolb,12.0,S
161,31.0,bar,4451.0,E9poolb,1.0,1,bar,R.poolb,12.0,S
162,31.0,car,4651.0,E9poolb,2.0,2,car,R.poolb,12.0,S
163,31.0,scar,5305.0,E9poolb,3.0,3,scar,R.poolb,12.0,S
164,31.0,star,7054.0,E9poolb,4.0,4,far,R.poolb,12.0,S
165,31.0,spice,4678.0,E9poolb,0.0,0,spice,R.poolb,13.0,D
166,31.0,heat,5292.0,E9poolb,1.0,1,heat,R.poolb,13.0,D
167,31.0,shape,5472.0,E9poolb,2.0,2,,R.poolb,13.0,D
168,31.0,pear,5742.0,E9poolb,3.0,,,R.poolb,13.0,D
169,31.0,guest,6273.0,E9poolb,4.0,,,R.poolb,13.0,D
170,31.0,deer,6019.0,E9poolb,0.0,0,deer,R.poolb,14.0,S
171,31.0,sphere,4402.0,E9poolb,1.0,1,sphere,R.poolb,14.0,S
172,31.0,ear,5348.0,E9poolb,2.0,2,tear,R.poolb,14.0,S
173,31.0,tear,6567.0,E9poolb,3.0,,,R.poolb,14.0,S
174,31.0,boot,6220.0,E9poolb,0.0,0,boot,R.poolb,15.0,S
175,31.0,suit,5076.0,E9poolb,1.0,1,suit,R.poolb,15.0,S
176,31.0,flute,7170.0,E9poolb,2.0,2,flute,R.poolb,15.0,S
177,31.0,loot,5225.0,E9poolb,3.0,3,brute,R.poolb,15.0,S
178,31.0,root,4761.0,E9poolb,4.0,,,R.poolb,15.0,S
179,31.0,brute,4852.0,E9poolb,5.0,,,R.poolb,15.0,S
180,31.0,toy,5501.0,E9poolb,0.0,0,toy,R.poolb,16.0,D
181,31.0,wreck,5803.0,E9poolb,1.0,1,wreck,R.poolb,16.0,D
182,31.0,frown,5602.0,E9poolb,2.0,2,frown,R.poolb,16.0,D
183,31.0,cream,5622.0,E9poolb,0.0,0,cream,R.poolb,17.0,S
184,31.0,team,4613.0,E9poolb,1.0,1,team,R.poolb,17.0,S
185,31.0,steam,5245.0,E9poolb,2.0,2,steam,R.poolb,17.0,S
186,31.0,chest,5148.0,E9poolb,0.0,0,chest,R.poolb,18.0,D
187,31.0,lane,5095.0,E9poolb,1.0,1,tend,R.poolb,18.0,D
188,31.0,hair,6372.0,E9poolb,2.0,2,cream,R.poolb,18.0,D
189,31.0,crown,5878.0,E9poolb,3.0,,,R.poolb,18.0,D
190,31.0,ant,5385.0,E9poolb,0.0,0,air,R.poolb,19.0,D
191,31.0,air,4770.0,E9poolb,1.0,1,ant,R.poolb,19.0,D
192,31.0,ink,5004.0,E9poolb,2.0,2,ink,R.poolb,19.0,D
193,31.0,cloud,4212.0,E9poolb,3.0,3,cloud,R.poolb,19.0,D
194,31.0,seat,5494.0,E9poolb,4.0,4,breath,R.poolb,19.0,D
195,31.0,breath,5003.0,E9poolb,5.0,,,R.poolb,19.0,D
196,31.0,deck,5160.0,E9poolb,0.0,0,deck,R.poolb,20.0,D
197,31.0,slice,4796.0,E9poolb,1.0,1,rat,R.poolb,20.0,D
198,31.0,rat,4861.0,E9poolb,2.0,,,R.poolb,20.0,D
199,31.0,pie,5513.0,E9poolb,0.0,0,pie,R.poolb,21.0,S
200,31.0,fly,4877.0,E9poolb,1.0,1,fly,R.poolb,21.0,S
201,31.0,tie,4324.0,E9poolb,2.0,2,tie,R.poolb,21.0,S
202,31.0,sky,5273.0,E9poolb,3.0,3,,R.poolb,21.0,S
203,31.0,eye,4711.0,E9poolb,4.0,,,R.poolb,21.0,S
204,31.0,shell,3898.0,E9poolb,0.0,0,shell,R.poolb,22.0,D
205,31.0,tree,4481.0,E9poolb,1.0,1,tree,R.poolb,22.0,D
206,31.0,bowl,5502.0,E9poolb,2.0,2,ground,R.poolb,22.0,D
207,31.0,broom,5322.0,E9poolb,3.0,,,R.poolb,22.0,D
208,31.0,test,4534.0,E9poolb,4.0,,,R.poolb,22.0,D
209,31.0,ground,4419.0,E9poolb,5.0,,,R.poolb,22.0,D
210,31.0,mare,4660.0,E9poolb,0.0,0,mare,R.poolb,23.0,D
211,31.0,bell,5155.0,E9poolb,1.0,1,book,R.poolb,23.0,D
212,31.0,brain,5646.0,E9poolb,2.0,2,brain,R.poolb,23.0,D
213,31.0,beef,6093.0,E9poolb,3.0,3,beef,R.poolb,23.0,D
214,31.0,band,4845.0,E9poolb,0.0,0,band,R.poolb,24.0,S
215,31.0,land,4972.0,E9poolb,1.0,1,land,R.poolb,24.0,S
216,31.0,stand,6631.0,E9poolb,2.0,2,stand,R.poolb,24.0,S
217,31.0,hand,6228.0,E9poolb,3.0,3,,R.poolb,24.0,S
218,31.0,bone,4356.0,E9poolb,0.0,0,phone,R.poolb,25.0,S
219,31.0,phone,4927.0,E9poolb,1.0,1,stone,R.poolb,25.0,S
220,31.0,stone,4970.0,E9poolb,2.0,,,R.poolb,25.0,S
221,31.0,beard,4890.0,E9poolb,0.0,0,beard,R.poolb,26.0,D
222,31.0,hill,4399.0,E9poolb,1.0,1,line,R.poolb,26.0,D
223,31.0,dirt,4696.0,E9poolb,2.0,,,R.poolb,26.0,D
224,31.0,card,4677.0,E9poolb,3.0,,,R.poolb,26.0,D
225,31.0,line,4981.0,E9poolb,4.0,,,R.poolb,26.0,D
226,31.0,mail,5400.0,E9poolb,0.0,0,mail,R.poolb,27.0,S
227,31.0,sail,4192.0,E9poolb,1.0,1,sail,R.poolb,27.0,S
228,31.0,trail,5819.0,E9poolb,2.0,2,trail,R.poolb,27.0,S
229,31.0,wail,4506.0,E9poolb,3.0,3,rail,R.poolb,27.0,S
230,31.0,tail,4471.0,E9poolb,4.0,,,R.poolb,27.0,S
231,31.0,jail,4519.0,E9poolb,5.0,,,R.poolb,27.0,S
232,34.0,farm,6322.0,E9poolb,0.0,0,farm,R.poolb,0.0,P
233,34.0,arm,5348.0,E9poolb,1.0,1,arm,R.poolb,0.0,P
234,34.0,bath,5587.0,E9poolb,0.0,0,bath,R.poolb,1.0,P
235,34.0,dawn,5373.0,E9poolb,1.0,1,dawn,R.poolb,1.0,P
236,34.0,earth,6284.0,E9poolb,0.0,0,earth,R.poolb,2.0,P
237,34.0,peach,4896.0,E9poolb,1.0,1,peach,R.poolb,2.0,P
238,34.0,hood,5275.0,E9poolb,0.0,0,coal,R.poolb,3.0,P
239,34.0,wood,5169.0,E9poolb,1.0,1,wood,R.poolb,3.0,P
240,34.0,neck,5283.0,E9poolb,0.0,0,neck,R.poolb,4.0,D
241,34.0,town,4895.0,E9poolb,1.0,1,coal,R.poolb,4.0,D
242,34.0,hat,5997.0,E9poolb,2.0,2,,R.poolb,4.0,D
243,34.0,street,6693.0,E9poolb,3.0,3,stress,R.poolb,4.0,D
244,34.0,rice,6046.0,E9poolb,0.0,0,cat,R.poolb,5.0,D
245,34.0,cat,6188.0,E9poolb,1.0,1,rice,R.poolb,5.0,D
246,34.0,trash,7652.0,E9poolb,2.0,2,stress,R.poolb,5.0,D
247,34.0,coin,5710.0,E9poolb,0.0,0,,R.poolb,6.0,D
248,34.0,film,6153.0,E9poolb,1.0,1,coin,R.poolb,6.0,D
249,34.0,leaf,6123.0,E9poolb,2.0,2,,R.poolb,6.0,D
250,34.0,train,8039.0,E9poolb,3.0,3,map,R.poolb,6.0,D
251,34.0,map,7139.0,E9poolb,4.0,4,art,R.poolb,6.0,D
252,34.0,art,6453.0,E9poolb,5.0,,,R.poolb,6.0,D
253,34.0,doll,5413.0,E9poolb,0.0,0,ball,R.poolb,7.0,S
254,34.0,ball,5332.0,E9poolb,1.0,1,dall,R.poolb,7.0,S
255,34.0,shawl,5848.0,E9poolb,2.0,2,hall,R.poolb,7.0,S
256,34.0,hall,7295.0,E9poolb,3.0,3,shawl,R.poolb,7.0,S
257,34.0,brawl,6481.0,E9poolb,4.0,4,brawl,R.poolb,7.0,S
258,34.0,wall,6671.0,E9poolb,5.0,5,wall,R.poolb,7.0,S
259,34.0,path,5643.0,E9poolb,0.0,0,path,R.poolb,8.0,D
260,34.0,nest,5338.0,E9poolb,1.0,1,nest,R.poolb,8.0,D
261,34.0,square,5078.0,E9poolb,2.0,2,square,R.poolb,8.0,D
262,34.0,wood,5348.0,E9poolb,3.0,3,wood,R.poolb,8.0,D
263,34.0,beach,6511.0,E9poolb,4.0,4,beach,R.poolb,8.0,D
264,34.0,king,5256.0,E9poolb,0.0,0,king,R.poolb,9.0,S
265,34.0,ring,4903.0,E9poolb,1.0,1,ring,R.poolb,9.0,S
266,34.0,spring,5820.0,E9poolb,2.0,2,,R.poolb,9.0,S
267,34.0,string,7019.0,E9poolb,3.0,3,string,R.poolb,9.0,S
268,34.0,wing,7049.0,E9poolb,4.0,4,thing,R.poolb,9.0,S
269,34.0,bread,5275.0,E9poolb,0.0,0,bread,R.poolb,10.0,S
270,34.0,head,5129.0,E9poolb,1.0,1,head,R.poolb,10.0,S
271,34.0,thread,5157.0,E9poolb,2.0,2,string,R.poolb,10.0,S
272,34.0,bed,5800.0,E9poolb,3.0,3,bed,R.poolb,10.0,S
273,34.0,cream,4784.0,E9poolb,0.0,0,cream,R.poolb,11.0,S
274,34.0,team,6466.0,E9poolb,1.0,1,team,R.poolb,11.0,S
275,34.0,steam,6029.0,E9poolb,2.0,2,steam,R.poolb,11.0,S
276,34.0,bone,5450.0,E9poolb,0.0,0,bone,R.poolb,12.0,S
277,34.0,phone,5065.0,E9poolb,1.0,1,phone,R.poolb,12.0,S
278,34.0,stone,5759.0,E9poolb,2.0,2,stone,R.poolb,12.0,S
279,34.0,toy,5123.0,E9poolb,0.0,0,toy,R.poolb,13.0,D
280,34.0,wreck,5407.0,E9poolb,1.0,1,wreck,R.poolb,13.0,D
281,34.0,frown,6280.0,E9poolb,2.0,2,frown,R.poolb,13.0,D
282,34.0,jar,5174.0,E9poolb,0.0,0,jar,R.poolb,14.0,S
283,34.0,bar,5216.0,E9poolb,1.0,1,bar,R.poolb,14.0,S
284,34.0,car,7104.0,E9poolb,2.0,2,car,R.poolb,14.0,S
285,34.0,scar,5035.0,E9poolb,3.0,3,scar,R.poolb,14.0,S
286,34.0,star,6355.0,E9poolb,4.0,4,star,R.poolb,14.0,S
287,34.0,spice,4844.0,E9poolb,0.0,0,spice,R.poolb,15.0,D
288,34.0,heat,5044.0,E9poolb,1.0,1,flame,R.poolb,15.0,D
289,34.0,shape,5435.0,E9poolb,2.0,2,shape,R.poolb,15.0,D
290,34.0,pear,5682.0,E9poolb,3.0,3,pear,R.poolb,15.0,D
291,34.0,guest,6255.0,E9poolb,4.0,4,,R.poolb,15.0,D
292,34.0,deer,5640.0,E9poolb,0.0,0,deer,R.poolb,16.0,S
293,34.0,sphere,4831.0,E9poolb,1.0,1,sphere,R.poolb,16.0,S
294,34.0,ear,5223.0,E9poolb,2.0,2,ear,R.poolb,16.0,S
295,34.0,tear,5711.0,E9poolb,3.0,3,tear,R.poolb,16.0,S
296,34.0,boot,4549.0,E9poolb,0.0,0,boot,R.poolb,17.0,S
297,34.0,suit,5088.0,E9poolb,1.0,1,suit,R.poolb,17.0,S
298,34.0,flute,5205.0,E9poolb,2.0,2,flute,R.poolb,17.0,S
299,34.0,loot,5614.0,E9poolb,3.0,3,lute,R.poolb,17.0,S
300,34.0,root,7062.0,E9poolb,4.0,4,root,R.poolb,17.0,S
301,34.0,brute,5819.0,E9poolb,5.0,5,,R.poolb,17.0,S
302,34.0,chest,5829.0,E9poolb,0.0,0,chest,R.poolb,18.0,D
303,34.0,lane,5924.0,E9poolb,1.0,1,lane,R.poolb,18.0,D
304,34.0,hair,5416.0,E9poolb,2.0,2,hair,R.poolb,18.0,D
305,34.0,crown,5975.0,E9poolb,3.0,3,crown,R.poolb,18.0,D
306,34.0,ant,5478.0,E9poolb,0.0,0,ant,R.poolb,19.0,D
307,34.0,air,5204.0,E9poolb,1.0,1,air,R.poolb,19.0,D
308,34.0,ink,6333.0,E9poolb,2.0,2,ink,R.poolb,19.0,D
309,34.0,cloud,5719.0,E9poolb,3.0,3,cloud,R.poolb,19.0,D
310,34.0,seat,5755.0,E9poolb,4.0,4,seat,R.poolb,19.0,D
311,34.0,breath,5213.0,E9poolb,5.0,5,,R.poolb,19.0,D
312,34.0,pie,5075.0,E9poolb,0.0,0,pie,R.poolb,20.0,S
313,34.0,fly,4913.0,E9poolb,1.0,1,fly,R.poolb,20.0,S
314,34.0,tie,5334.0,E9poolb,2.0,2,tie,R.poolb,20.0,S
315,34.0,sky,5298.0,E9poolb,3.0,3,sky,R.poolb,20.0,S
316,34.0,eye,5767.0,E9poolb,4.0,4,eye,R.poolb,20.0,S
317,34.0,shell,5358.0,E9poolb,0.0,0,shell,R.poolb,21.0,D
318,34.0,tree,5713.0,E9poolb,1.0,1,tree,R.poolb,21.0,D
319,34.0,bowl,5733.0,E9poolb,2.0,2,bowl,R.poolb,21.0,D
320,34.0,broom,5464.0,E9poolb,3.0,3,broom,R.poolb,21.0,D
321,34.0,test,5614.0,E9poolb,4.0,4,test,R.poolb,21.0,D
322,34.0,ground,6903.0,E9poolb,5.0,5,,R.poolb,21.0,D
323,34.0,mail,4971.0,E9poolb,0.0,0,mail,R.poolb,22.0,S
324,34.0,sail,5309.0,E9poolb,1.0,1,sail,R.poolb,22.0,S
325,34.0,trail,5898.0,E9poolb,2.0,2,trail,R.poolb,22.0,S
326,34.0,wail,5903.0,E9poolb,3.0,3,wail,R.poolb,22.0,S
327,34.0,tail,6443.0,E9poolb,4.0,4,tail,R.poolb,22.0,S
328,34.0,jail,5537.0,E9poolb,5.0,5,jail,R.poolb,22.0,S
329,34.0,beard,5717.0,E9poolb,0.0,0,beard,R.poolb,23.0,D
330,34.0,hill,5352.0,E9poolb,1.0,1,hill,R.poolb,23.0,D
331,34.0,dirt,5371.0,E9poolb,2.0,2,dirt,R.poolb,23.0,D
332,34.0,card,5877.0,E9poolb,3.0,3,card,R.poolb,23.0,D
333,34.0,line,5850.0,E9poolb,4.0,4,line,R.poolb,23.0,D
334,34.0,band,5055.0,E9poolb,0.0,0,band,R.poolb,24.0,S
335,34.0,land,5582.0,E9poolb,1.0,1,land,R.poolb,24.0,S
336,34.0,stand,5567.0,E9poolb,2.0,2,stand,R.poolb,24.0,S
337,34.0,hand,5553.0,E9poolb,3.0,3,hand,R.poolb,24.0,S
338,34.0,deck,5051.0,E9poolb,0.0,0,deck,R.poolb,25.0,D
339,34.0,slice,6121.0,E9poolb,1.0,1,slice,R.poolb,25.0,D
340,34.0,rat,5524.0,E9poolb,2.0,2,rat,R.poolb,25.0,D
341,34.0,blouse,5126.0,E9poolb,0.0,0,blouse,R.poolb,26.0,S
342,34.0,house,5914.0,E9poolb,1.0,1,house,R.poolb,26.0,S
343,34.0,mouse,5590.0,E9poolb,2.0,2,mouse,R.poolb,26.0,S
344,34.0,mare,4599.0,E9poolb,0.0,0,mare,R.poolb,27.0,D
345,34.0,bell,6576.0,E9poolb,1.0,1,bell,R.poolb,27.0,D
346,34.0,brain,5249.0,E9poolb,2.0,2,brain,R.poolb,27.0,D
347,34.0,beef,5695.0,E9poolb,3.0,3,beef,R.poolb,27.0,D
348,18.0,hood,5855.0,E9poolb,0.0,0,hood,R.poolb,0.0,P
349,18.0,wood,5517.0,E9poolb,1.0,1,wood,R.poolb,0.0,P
350,18.0,bath,5811.0,E9poolb,0.0,0,bath,R.poolb,1.0,P
351,18.0,dawn,4539.0,E9poolb,1.0,1,dawn,R.poolb,1.0,P
352,18.0,farm,5724.0,E9poolb,0.0,0,farm,R.poolb,2.0,P
353,18.0,arm,5080.0,E9poolb,1.0,1,arm,R.poolb,2.0,P
354,18.0,earth,4665.0,E9poolb,0.0,0,earth,R.poolb,3.0,P
355,18.0,peach,4383.0,E9poolb,1.0,1,peach,R.poolb,3.0,P
356,18.0,coin,7068.0,E9poolb,0.0,0,map,R.poolb,4.0,D
357,18.0,film,4752.0,E9poolb,1.0,1,art,R.poolb,4.0,D
358,18.0,leaf,4587.0,E9poolb,2.0,2,coin,R.poolb,4.0,D
359,18.0,train,4629.0,E9poolb,3.0,3,film,R.poolb,4.0,D
360,18.0,map,4990.0,E9poolb,4.0,,,R.poolb,4.0,D
361,18.0,art,4583.0,E9poolb,5.0,,,R.poolb,4.0,D
362,18.0,blouse,4639.0,E9poolb,0.0,0,blouse,R.poolb,5.0,S
363,18.0,house,3903.0,E9poolb,1.0,1,house,R.poolb,5.0,S
364,18.0,mouse,4477.0,E9poolb,2.0,2,mouse,R.poolb,5.0,S
365,18.0,neck,5056.0,E9poolb,0.0,0,neck,R.poolb,6.0,D
366,18.0,town,5007.0,E9poolb,1.0,1,map,R.poolb,6.0,D
367,18.0,hat,4264.0,E9poolb,2.0,2,street,R.poolb,6.0,D
368,18.0,street,4175.0,E9poolb,3.0,,,R.poolb,6.0,D
369,18.0,path,4458.0,E9poolb,0.0,0,wood,R.poolb,7.0,D
370,18.0,nest,4521.0,E9poolb,1.0,1,nest,R.poolb,7.0,D
371,18.0,square,4382.0,E9poolb,2.0,2,beach,R.poolb,7.0,D
372,18.0,wood,4760.0,E9poolb,3.0,3,unknown,R.poolb,7.0,D
373,18.0,beach,3979.0,E9poolb,4.0,,,R.poolb,7.0,D
374,18.0,rice,4424.0,E9poolb,0.0,0,rice,R.poolb,8.0,D
375,18.0,cat,4489.0,E9poolb,1.0,1,cat,R.poolb,8.0,D
376,18.0,trash,4183.0,E9poolb,2.0,2,trash,R.poolb,8.0,D
377,18.0,doll,4956.0,E9poolb,0.0,0,doll,R.poolb,9.0,S
378,18.0,ball,4511.0,E9poolb,1.0,1,hall,R.poolb,9.0,S
379,18.0,shawl,4364.0,E9poolb,2.0,2,shawl,R.poolb,9.0,S
380,18.0,hall,4935.0,E9poolb,3.0,3,brawl,R.poolb,9.0,S
381,18.0,brawl,5051.0,E9poolb,4.0,,,R.poolb,9.0,S
382,18.0,wall,4058.0,E9poolb,5.0,,,R.poolb,9.0,S
383,18.0,king,4360.0,E9poolb,0.0,0,king,R.poolb,10.0,S
384,18.0,ring,4635.0,E9poolb,1.0,1,ring,R.poolb,10.0,S
385,18.0,spring,4211.0,E9poolb,2.0,2,spring,R.poolb,10.0,S
386,18.0,string,4005.0,E9poolb,3.0,3,string,R.poolb,10.0,S
387,18.0,wing,4270.0,E9poolb,4.0,4,wing,R.poolb,10.0,S
388,18.0,bread,4769.0,E9poolb,0.0,0,head,R.poolb,11.0,S
389,18.0,head,4419.0,E9poolb,1.0,1,thread,R.poolb,11.0,S
390,18.0,thread,4332.0,E9poolb,2.0,2,bed,R.poolb,11.0,S
391,18.0,bed,4504.0,E9poolb,3.0,,,R.poolb,11.0,S
392,18.0,jar,4174.0,E9poolb,0.0,0,car,R.poolb,12.0,S
393,18.0,bar,4585.0,E9poolb,1.0,1,scar,R.poolb,12.0,S
394,18.0,car,4195.0,E9poolb,2.0,2,star,R.poolb,12.0,S
395,18.0,scar,4717.0,E9poolb,3.0,,,R.poolb,12.0,S
396,18.0,star,4114.0,E9poolb,4.0,,,R.poolb,12.0,S
397,18.0,bone,3997.0,E9poolb,0.0,0,bone,R.poolb,13.0,S
398,18.0,phone,4175.0,E9poolb,1.0,1,phone,R.poolb,13.0,S
399,18.0,stone,4058.0,E9poolb,2.0,2,stone,R.poolb,13.0,S
400,18.0,boot,3906.0,E9poolb,0.0,0,loot,R.poolb,14.0,S
401,18.0,suit,4632.0,E9poolb,1.0,1,suite,R.poolb,14.0,S
402,18.0,flute,4304.0,E9poolb,2.0,2,flute,R.poolb,14.0,S
403,18.0,loot,3830.0,E9poolb,3.0,3,boot,R.poolb,14.0,S
404,18.0,root,4255.0,E9poolb,4.0,4,root,R.poolb,14.0,S
405,18.0,brute,4695.0,E9poolb,5.0,,,R.poolb,14.0,S
406,18.0,chest,4445.0,E9poolb,0.0,0,chest,R.poolb,15.0,D
407,18.0,lane,5189.0,E9poolb,1.0,1,hair,R.poolb,15.0,D
408,18.0,hair,3982.0,E9poolb,2.0,2,crown,R.poolb,15.0,D
409,18.0,crown,4257.0,E9poolb,3.0,3,lane,R.poolb,15.0,D
410,18.0,toy,4440.0,E9poolb,0.0,0,toy,R.poolb,16.0,D
411,18.0,wreck,4488.0,E9poolb,1.0,1,wreck,R.poolb,16.0,D
412,18.0,frown,4998.0,E9poolb,2.0,2,frown,R.poolb,16.0,D
413,18.0,ant,4285.0,E9poolb,0.0,0,breath,R.poolb,17.0,D
414,18.0,air,4803.0,E9poolb,1.0,1,ant,R.poolb,17.0,D
415,18.0,ink,4324.0,E9poolb,2.0,2,,R.poolb,17.0,D
416,18.0,cloud,4737.0,E9poolb,3.0,,,R.poolb,17.0,D
417,18.0,seat,4477.0,E9poolb,4.0,,,R.poolb,17.0,D
418,18.0,breath,4908.0,E9poolb,5.0,,,R.poolb,17.0,D
419,18.0,deer,4131.0,E9poolb,0.0,0,deer,R.poolb,18.0,S
420,18.0,sphere,4511.0,E9poolb,1.0,1,sphere,R.poolb,18.0,S
421,18.0,ear,4661.0,E9poolb,2.0,2,ear,R.poolb,18.0,S
422,18.0,tear,5428.0,E9poolb,3.0,3,tear,R.poolb,18.0,S
423,18.0,spice,5613.0,E9poolb,0.0,0,ice,R.poolb,19.0,D
424,18.0,heat,4406.0,E9poolb,1.0,1,heat,R.poolb,19.0,D
425,18.0,shape,4943.0,E9poolb,2.0,2,shape,R.poolb,19.0,D
426,18.0,pear,4803.0,E9poolb,3.0,3,pear,R.poolb,19.0,D
427,18.0,guest,4812.0,E9poolb,4.0,4,guest,R.poolb,19.0,D
428,18.0,shell,4936.0,E9poolb,0.0,0,test,R.poolb,20.0,D
429,18.0,tree,5564.0,E9poolb,1.0,1,ground,R.poolb,20.0,D
430,18.0,bowl,4950.0,E9poolb,2.0,2,tree,R.poolb,20.0,D
431,18.0,broom,5217.0,E9poolb,3.0,3,bowl,R.poolb,20.0,D
432,18.0,test,4553.0,E9poolb,4.0,,,R.poolb,20.0,D
433,18.0,ground,4380.0,E9poolb,5.0,,,R.poolb,20.0,D
434,18.0,mare,5236.0,E9poolb,0.0,0,beef,R.poolb,21.0,D
435,18.0,bell,5243.0,E9poolb,1.0,1,brain,R.poolb,21.0,D
436,18.0,brain,4898.0,E9poolb,2.0,2,mare,R.poolb,21.0,D
437,18.0,beef,3983.0,E9poolb,3.0,,,R.poolb,21.0,D
438,18.0,mail,4569.0,E9poolb,0.0,0,mail,R.poolb,22.0,S
439,18.0,sail,4716.0,E9poolb,1.0,1,pale,R.poolb,22.0,S
440,18.0,trail,5184.0,E9poolb,2.0,2,trale,R.poolb,22.0,S
441,18.0,wail,4266.0,E9poolb,3.0,3,sail,R.poolb,22.0,S
442,18.0,tail,4537.0,E9poolb,4.0,4,jail,R.poolb,22.0,S
443,18.0,jail,4549.0,E9poolb,5.0,,,R.poolb,22.0,S
444,18.0,deck,4748.0,E9poolb,0.0,0,deck,R.poolb,23.0,D
445,18.0,slice,4967.0,E9poolb,1.0,1,ice,R.poolb,23.0,D
446,18.0,rat,4778.0,E9poolb,2.0,2,rat,R.poolb,23.0,D
447,18.0,pie,4578.0,E9poolb,0.0,0,pie,R.poolb,24.0,S
448,18.0,fly,4476.0,E9poolb,1.0,1,fly,R.poolb,24.0,S
449,18.0,tie,4483.0,E9poolb,2.0,2,eye,R.poolb,24.0,S
450,18.0,sky,4761.0,E9poolb,3.0,,,R.poolb,24.0,S
451,18.0,eye,4380.0,E9poolb,4.0,,,R.poolb,24.0,S
452,18.0,cream,4559.0,E9poolb,0.0,0,cream,R.poolb,25.0,S
453,18.0,team,5050.0,E9poolb,1.0,1,team,R.poolb,25.0,S
454,18.0,steam,4489.0,E9poolb,2.0,2,steam,R.poolb,25.0,S
455,18.0,beard,4740.0,E9poolb,0.0,0,hill,R.poolb,26.0,D
456,18.0,hill,4824.0,E9poolb,1.0,1,dirt,R.poolb,26.0,D
457,18.0,dirt,4720.0,E9poolb,2.0,2,line,R.poolb,26.0,D
458,18.0,card,4629.0,E9poolb,3.0,,,R.poolb,26.0,D
459,18.0,line,5109.0,E9poolb,4.0,,,R.poolb,26.0,D
460,18.0,band,4666.0,E9poolb,0.0,0,band,R.poolb,27.0,S
461,18.0,land,5184.0,E9poolb,1.0,1,sand,R.poolb,27.0,S
462,18.0,stand,4049.0,E9poolb,2.0,2,land,R.poolb,27.0,S
463,18.0,hand,5033.0,E9poolb,3.0,3,hand,R.poolb,27.0,S
464,27.0,earth,8552.0,E9poolb,0.0,0,earth,R.poolb,0.0,P
465,27.0,peach,6190.0,E9poolb,1.0,1,peach,R.poolb,0.0,P
466,27.0,bath,5816.0,E9poolb,0.0,0,bath,R.poolb,1.0,P
467,27.0,dawn,6270.0,E9poolb,1.0,1,dawn,R.poolb,1.0,P
468,27.0,hood,5810.0,E9poolb,0.0,0,hood,R.poolb,2.0,P
469,27.0,wood,5464.0,E9poolb,1.0,1,wood,R.poolb,2.0,P
470,27.0,farm,6163.0,E9poolb,0.0,0,farm,R.poolb,3.0,P
471,27.0,arm,5868.0,E9poolb,1.0,1,arm,R.poolb,3.0,P
472,27.0,doll,5636.0,E9poolb,0.0,0,doll,R.poolb,4.0,S
473,27.0,ball,6467.0,E9poolb,1.0,1,ball,R.poolb,4.0,S
474,27.0,shawl,7048.0,E9poolb,2.0,2,shawl,R.poolb,4.0,S
475,27.0,hall,6324.0,E9poolb,3.0,3,hall,R.poolb,4.0,S
476,27.0,brawl,6023.0,E9poolb,4.0,4,brawl,R.poolb,4.0,S
477,27.0,wall,5629.0,E9poolb,5.0,,,R.poolb,4.0,S
478,27.0,neck,7062.0,E9poolb,0.0,0,neck,R.poolb,5.0,D
479,27.0,town,6138.0,E9poolb,1.0,1,,R.poolb,5.0,D
480,27.0,hat,6220.0,E9poolb,2.0,2,,R.poolb,5.0,D
481,27.0,street,5611.0,E9poolb,3.0,3,street,R.poolb,5.0,D
482,27.0,path,5917.0,E9poolb,0.0,0,,R.poolb,6.0,D
483,27.0,nest,5888.0,E9poolb,1.0,1,,R.poolb,6.0,D
484,27.0,square,5532.0,E9poolb,2.0,2,square,R.poolb,6.0,D
485,27.0,wood,6791.0,E9poolb,3.0,3,,R.poolb,6.0,D
486,27.0,beach,6623.0,E9poolb,4.0,4,sun,R.poolb,6.0,D
487,27.0,cream,5279.0,E9poolb,0.0,0,cream,R.poolb,7.0,S
488,27.0,team,5812.0,E9poolb,1.0,1,,R.poolb,7.0,S
489,27.0,steam,5811.0,E9poolb,2.0,2,steam,R.poolb,7.0,S
490,27.0,king,6301.0,E9poolb,0.0,0,ring,R.poolb,8.0,S
491,27.0,ring,5681.0,E9poolb,1.0,1,king,R.poolb,8.0,S
492,27.0,spring,5677.0,E9poolb,2.0,2,wing,R.poolb,8.0,S
493,27.0,string,6283.0,E9poolb,3.0,3,,R.poolb,8.0,S
494,27.0,wing,5838.0,E9poolb,4.0,4,string,R.poolb,8.0,S
495,27.0,coin,6114.0,E9poolb,0.0,0,coin,R.poolb,9.0,D
496,27.0,film,6357.0,E9poolb,1.0,1,film,R.poolb,9.0,D
497,27.0,leaf,5750.0,E9poolb,2.0,2,,R.poolb,9.0,D
498,27.0,train,5736.0,E9poolb,3.0,3,map,R.poolb,9.0,D
499,27.0,map,6363.0,E9poolb,4.0,,,R.poolb,9.0,D
500,27.0,art,6069.0,E9poolb,5.0,,,R.poolb,9.0,D
501,27.0,bread,5181.0,E9poolb,0.0,0,bread,R.poolb,10.0,S
502,27.0,head,5926.0,E9poolb,1.0,1,head,R.poolb,10.0,S
503,27.0,thread,5488.0,E9poolb,2.0,2,thread,R.poolb,10.0,S
504,27.0,bed,6059.0,E9poolb,3.0,3,bed,R.poolb,10.0,S
505,27.0,rice,7384.0,E9poolb,0.0,0,rice,R.poolb,11.0,D
506,27.0,cat,5784.0,E9poolb,1.0,1,cat,R.poolb,11.0,D
507,27.0,trash,6184.0,E9poolb,2.0,2,trash,R.poolb,11.0,D
508,27.0,jar,5325.0,E9poolb,0.0,0,car,R.poolb,12.0,S
509,27.0,bar,5575.0,E9poolb,1.0,1,bar,R.poolb,12.0,S
510,27.0,car,5632.0,E9poolb,2.0,2,jar,R.poolb,12.0,S
511,27.0,scar,6598.0,E9poolb,3.0,3,,R.poolb,12.0,S
512,27.0,star,8309.0,E9poolb,4.0,4,star,R.poolb,12.0,S
513,27.0,blouse,5179.0,E9poolb,0.0,0,blouse,R.poolb,13.0,S
514,27.0,house,5701.0,E9poolb,1.0,1,house,R.poolb,13.0,S
515,27.0,mouse,5321.0,E9poolb,2.0,2,mouse,R.poolb,13.0,S
516,27.0,deer,5844.0,E9poolb,0.0,0,deer,R.poolb,14.0,S
517,27.0,sphere,5648.0,E9poolb,1.0,1,sphere,R.poolb,14.0,S
518,27.0,ear,5823.0,E9poolb,2.0,2,ear,R.poolb,14.0,S
519,27.0,tear,6511.0,E9poolb,3.0,3,tear,R.poolb,14.0,S
520,27.0,ant,4904.0,E9poolb,0.0,0,ant,R.poolb,15.0,D
521,27.0,air,5843.0,E9poolb,1.0,1,air,R.poolb,15.0,D
522,27.0,ink,5592.0,E9poolb,2.0,2,ink,R.poolb,15.0,D
523,27.0,cloud,6696.0,E9poolb,3.0,3,,R.poolb,15.0,D
524,27.0,seat,4932.0,E9poolb,4.0,4,,R.poolb,15.0,D
525,27.0,breath,5998.0,E9poolb,5.0,,,R.poolb,15.0,D
526,27.0,toy,4666.0,E9poolb,0.0,0,toy,R.poolb,16.0,D
527,27.0,wreck,6414.0,E9poolb,1.0,1,wreck,R.poolb,16.0,D
528,27.0,frown,5453.0,E9poolb,2.0,2,frown,R.poolb,16.0,D
529,27.0,chest,4664.0,E9poolb,0.0,0,toy,R.poolb,17.0,D
530,27.0,lane,4775.0,E9poolb,1.0,1,wreck,R.poolb,17.0,D
531,27.0,hair,5600.0,E9poolb,2.0,2,chest,R.poolb,17.0,D
532,27.0,crown,6015.0,E9poolb,3.0,3,hair,R.poolb,17.0,D
533,27.0,boot,5063.0,E9poolb,0.0,0,boot,R.poolb,18.0,S
534,27.0,suit,5509.0,E9poolb,1.0,1,suit,R.poolb,18.0,S
535,27.0,flute,5519.0,E9poolb,2.0,2,flute,R.poolb,18.0,S
536,27.0,loot,6060.0,E9poolb,3.0,3,,R.poolb,18.0,S
537,27.0,root,5048.0,E9poolb,4.0,4,root,R.poolb,18.0,S
538,27.0,brute,5463.0,E9poolb,5.0,,,R.poolb,18.0,S
539,27.0,spice,4838.0,E9poolb,0.0,0,spice,R.poolb,19.0,D
540,27.0,heat,5446.0,E9poolb,1.0,1,heat,R.poolb,19.0,D
541,27.0,shape,5956.0,E9poolb,2.0,2,shape,R.poolb,19.0,D
542,27.0,pear,7470.0,E9poolb,3.0,3,pear,R.poolb,19.0,D
543,27.0,guest,6306.0,E9poolb,4.0,4,guest,R.poolb,19.0,D
544,27.0,shell,5053.0,E9poolb,0.0,0,shell,R.poolb,20.0,D
545,27.0,tree,5531.0,E9poolb,1.0,1,tree,R.poolb,20.0,D
546,27.0,bowl,5270.0,E9poolb,2.0,2,,R.poolb,20.0,D
547,27.0,broom,6300.0,E9poolb,3.0,,,R.poolb,20.0,D
548,27.0,test,6607.0,E9poolb,4.0,,,R.poolb,20.0,D
549,27.0,ground,5550.0,E9poolb,5.0,,,R.poolb,20.0,D
550,27.0,beard,5222.0,E9poolb,0.0,0,,R.poolb,21.0,D
551,27.0,hill,5030.0,E9poolb,1.0,1,dirt,R.poolb,21.0,D
552,27.0,dirt,5253.0,E9poolb,2.0,2,hill,R.poolb,21.0,D
553,27.0,card,5900.0,E9poolb,3.0,3,,R.poolb,21.0,D
554,27.0,line,5857.0,E9poolb,4.0,4,line,R.poolb,21.0,D
555,27.0,deck,4829.0,E9poolb,0.0,0,deck,R.poolb,22.0,D
556,27.0,slice,6189.0,E9poolb,1.0,1,slice,R.poolb,22.0,D
557,27.0,rat,6269.0,E9poolb,2.0,2,rat,R.poolb,22.0,D
558,27.0,band,4981.0,E9poolb,0.0,0,band,R.poolb,23.0,S
559,27.0,land,6030.0,E9poolb,1.0,1,land,R.poolb,23.0,S
560,27.0,stand,5597.0,E9poolb,2.0,2,stand,R.poolb,23.0,S
561,27.0,hand,6518.0,E9poolb,3.0,3,,R.poolb,23.0,S
562,27.0,bone,5754.0,E9poolb,0.0,0,bone,R.poolb,24.0,S
563,27.0,phone,5196.0,E9poolb,1.0,1,phone,R.poolb,24.0,S
564,27.0,stone,6436.0,E9poolb,2.0,2,stone,R.poolb,24.0,S
565,27.0,pie,4744.0,E9poolb,0.0,0,pie,R.poolb,25.0,S
566,27.0,fly,5339.0,E9poolb,1.0,1,fly,R.poolb,25.0,S
567,27.0,tie,6751.0,E9poolb,2.0,2,tie,R.poolb,25.0,S
568,27.0,sky,6664.0,E9poolb,3.0,3,,R.poolb,25.0,S
569,27.0,eye,6652.0,E9poolb,4.0,,,R.poolb,25.0,S
570,27.0,mail,5291.0,E9poolb,0.0,0,mail,R.poolb,26.0,S
571,27.0,sail,5656.0,E9poolb,1.0,1,sail,R.poolb,26.0,S
572,27.0,trail,5022.0,E9poolb,2.0,2,,R.poolb,26.0,S
573,27.0,wail,7374.0,E9poolb,3.0,3,,R.poolb,26.0,S
574,27.0,tail,5687.0,E9poolb,4.0,4,jail,R.poolb,26.0,S
575,27.0,jail,4819.0,E9poolb,5.0,,,R.poolb,26.0,S
576,27.0,mare,5206.0,E9poolb,0.0,0,mare,R.poolb,27.0,D
577,27.0,bell,4453.0,E9poolb,1.0,1,bell,R.poolb,27.0,D
578,27.0,brain,5268.0,E9poolb,2.0,2,brain,R.poolb,27.0,D
579,27.0,beef,6667.0,E9poolb,3.0,3,beef,R.poolb,27.0,D
580,39.0,farm,6592.0,E9poolb,0.0,0,farm,R.poolb,0.0,P
581,39.0,arm,5344.0,E9poolb,1.0,1,arm,R.poolb,0.0,P
582,39.0,hood,5783.0,E9poolb,0.0,0,hood,R.poolb,1.0,P
583,39.0,wood,5296.0,E9poolb,1.0,1,wood,R.poolb,1.0,P
584,39.0,bath,5208.0,E9poolb,0.0,0,bath,R.poolb,2.0,P
585,39.0,dawn,5105.0,E9poolb,1.0,1,dawn,R.poolb,2.0,P
586,39.0,earth,5233.0,E9poolb,0.0,0,earth,R.poolb,3.0,P
587,39.0,peach,5513.0,E9poolb,1.0,1,peach,R.poolb,3.0,P
588,39.0,king,5663.0,E9poolb,0.0,0,king,R.poolb,4.0,S
589,39.0,ring,5510.0,E9poolb,1.0,1,ring,R.poolb,4.0,S
590,39.0,spring,5130.0,E9poolb,2.0,2,spring,R.poolb,4.0,S
591,39.0,string,5414.0,E9poolb,3.0,3,string,R.poolb,4.0,S
592,39.0,wing,5055.0,E9poolb,4.0,4,wing,R.poolb,4.0,S
593,39.0,doll,4883.0,E9poolb,0.0,0,doll,R.poolb,5.0,S
594,39.0,ball,5265.0,E9poolb,1.0,1,ball,R.poolb,5.0,S
595,39.0,shawl,5255.0,E9poolb,2.0,2,shawl,R.poolb,5.0,S
596,39.0,hall,4845.0,E9poolb,3.0,3,hall,R.poolb,5.0,S
597,39.0,brawl,5325.0,E9poolb,4.0,4,brawl,R.poolb,5.0,S
598,39.0,wall,6065.0,E9poolb,5.0,,,R.poolb,5.0,S
599,39.0,bread,6172.0,E9poolb,0.0,0,bread,R.poolb,6.0,S
600,39.0,head,4909.0,E9poolb,1.0,1,head,R.poolb,6.0,S
601,39.0,thread,5274.0,E9poolb,2.0,2,bed,R.poolb,6.0,S
602,39.0,bed,5200.0,E9poolb,3.0,,,R.poolb,6.0,S
603,39.0,coin,4973.0,E9poolb,0.0,0,coin,R.poolb,7.0,D
604,39.0,film,4920.0,E9poolb,1.0,1,leaf,R.poolb,7.0,D
605,39.0,leaf,4644.0,E9poolb,2.0,2,,R.poolb,7.0,D
606,39.0,train,6092.0,E9poolb,3.0,,,R.poolb,7.0,D
607,39.0,map,5104.0,E9poolb,4.0,,,R.poolb,7.0,D
608,39.0,art,5445.0,E9poolb,5.0,,,R.poolb,7.0,D
609,39.0,path,5112.0,E9poolb,0.0,0,path,R.poolb,8.0,D
610,39.0,nest,5325.0,E9poolb,1.0,1,nest,R.poolb,8.0,D
611,39.0,square,5600.0,E9poolb,2.0,2,square,R.poolb,8.0,D
612,39.0,wood,4841.0,E9poolb,3.0,3,wood,R.poolb,8.0,D
613,39.0,beach,5528.0,E9poolb,4.0,4,beach,R.poolb,8.0,D
614,39.0,bone,4657.0,E9poolb,0.0,0,bone,R.poolb,9.0,S
615,39.0,phone,5008.0,E9poolb,1.0,1,phone,R.poolb,9.0,S
616,39.0,stone,4913.0,E9poolb,2.0,2,stone,R.poolb,9.0,S
617,39.0,neck,4939.0,E9poolb,0.0,0,neck,R.poolb,10.0,D
618,39.0,town,4582.0,E9poolb,1.0,1,town,R.poolb,10.0,D
619,39.0,hat,4880.0,E9poolb,2.0,2,hat,R.poolb,10.0,D
620,39.0,street,4886.0,E9poolb,3.0,3,street,R.poolb,10.0,D
621,39.0,rice,4992.0,E9poolb,0.0,0,rice,R.poolb,11.0,D
622,39.0,cat,4313.0,E9poolb,1.0,1,cat,R.poolb,11.0,D
623,39.0,trash,4806.0,E9poolb,2.0,2,trash,R.poolb,11.0,D
624,39.0,toy,4673.0,E9poolb,0.0,0,toy,R.poolb,12.0,D
625,39.0,wreck,4400.0,E9poolb,1.0,1,wreck,R.poolb,12.0,D
626,39.0,frown,5441.0,E9poolb,2.0,2,frown,R.poolb,12.0,D
627,39.0,boot,4457.0,E9poolb,0.0,0,boot,R.poolb,13.0,S
628,39.0,suit,4656.0,E9poolb,1.0,1,suit,R.poolb,13.0,S
629,39.0,flute,4503.0,E9poolb,2.0,2,flute,R.poolb,13.0,S
630,39.0,loot,4965.0,E9poolb,3.0,3,loot,R.poolb,13.0,S
631,39.0,root,4959.0,E9poolb,4.0,4,root,R.poolb,13.0,S
632,39.0,brute,5106.0,E9poolb,5.0,5,brute,R.poolb,13.0,S
633,39.0,chest,5275.0,E9poolb,0.0,0,chest,R.poolb,14.0,D
634,39.0,lane,4904.0,E9poolb,1.0,1,path,R.poolb,14.0,D
635,39.0,hair,5205.0,E9poolb,2.0,2,hair,R.poolb,14.0,D
636,39.0,crown,5990.0,E9poolb,3.0,3,crown,R.poolb,14.0,D
637,39.0,ant,4906.0,E9poolb,0.0,0,ant,R.poolb,15.0,D
638,39.0,air,4455.0,E9poolb,1.0,1,air,R.poolb,15.0,D
639,39.0,ink,4438.0,E9poolb,2.0,2,ink,R.poolb,15.0,D
640,39.0,cloud,5718.0,E9poolb,3.0,3,cloud,R.poolb,15.0,D
641,39.0,seat,4402.0,E9poolb,4.0,4,seat,R.poolb,15.0,D
642,39.0,breath,5003.0,E9poolb,5.0,5,breath,R.poolb,15.0,D
643,39.0,deer,5068.0,E9poolb,0.0,0,deer,R.poolb,16.0,S
644,39.0,sphere,4474.0,E9poolb,1.0,1,sphere,R.poolb,16.0,S
645,39.0,ear,4593.0,E9poolb,2.0,2,sun,R.poolb,16.0,S
646,39.0,tear,4587.0,E9poolb,3.0,3,tear,R.poolb,16.0,S
647,39.0,blouse,4415.0,E9poolb,0.0,0,blouse,R.poolb,17.0,S
648,39.0,house,5191.0,E9poolb,1.0,1,house,R.poolb,17.0,S
649,39.0,mouse,5882.0,E9poolb,2.0,2,mouse,R.poolb,17.0,S
650,39.0,jar,4773.0,E9poolb,0.0,0,jar,R.poolb,18.0,S
651,39.0,bar,5104.0,E9poolb,1.0,1,bar,R.poolb,18.0,S
652,39.0,car,4845.0,E9poolb,2.0,2,car,R.poolb,18.0,S
653,39.0,scar,5268.0,E9poolb,3.0,3,scar,R.poolb,18.0,S
654,39.0,star,4586.0,E9poolb,4.0,4,star,R.poolb,18.0,S
655,39.0,spice,4895.0,E9poolb,0.0,0,spice,R.poolb,19.0,D
656,39.0,heat,4997.0,E9poolb,1.0,1,heat,R.poolb,19.0,D
657,39.0,shape,4830.0,E9poolb,2.0,2,shape,R.poolb,19.0,D
658,39.0,pear,5303.0,E9poolb,3.0,3,pear,R.poolb,19.0,D
659,39.0,guest,5659.0,E9poolb,4.0,4,guest,R.poolb,19.0,D
660,39.0,beard,4222.0,E9poolb,0.0,0,beard,R.poolb,20.0,D
661,39.0,hill,4567.0,E9poolb,1.0,1,hill,R.poolb,20.0,D
662,39.0,dirt,3985.0,E9poolb,2.0,2,dirt,R.poolb,20.0,D
663,39.0,card,5292.0,E9poolb,3.0,3,card,R.poolb,20.0,D
664,39.0,line,5113.0,E9poolb,4.0,4,line,R.poolb,20.0,D
665,39.0,mare,4344.0,E9poolb,0.0,0,mare,R.poolb,21.0,D
666,39.0,bell,4436.0,E9poolb,1.0,1,bell,R.poolb,21.0,D
667,39.0,brain,4404.0,E9poolb,2.0,2,brain,R.poolb,21.0,D
668,39.0,beef,4365.0,E9poolb,3.0,3,beef,R.poolb,21.0,D
669,39.0,deck,4354.0,E9poolb,0.0,0,deck,R.poolb,22.0,D
670,39.0,slice,4109.0,E9poolb,1.0,1,slice,R.poolb,22.0,D
671,39.0,rat,4340.0,E9poolb,2.0,2,rat,R.poolb,22.0,D
672,39.0,shell,4119.0,E9poolb,0.0,0,shell,R.poolb,23.0,D
673,39.0,tree,4467.0,E9poolb,1.0,1,tree,R.poolb,23.0,D
674,39.0,bowl,4002.0,E9poolb,2.0,2,bowl,R.poolb,23.0,D
675,39.0,broom,4619.0,E9poolb,3.0,3,broom,R.poolb,23.0,D
676,39.0,test,4677.0,E9poolb,4.0,4,test,R.poolb,23.0,D
677,39.0,ground,4636.0,E9poolb,5.0,5,ground,R.poolb,23.0,D
678,39.0,mail,4529.0,E9poolb,0.0,0,mail,R.poolb,24.0,S
679,39.0,sail,5101.0,E9poolb,1.0,1,sail,R.poolb,24.0,S
680,39.0,trail,4787.0,E9poolb,2.0,2,trail,R.poolb,24.0,S
681,39.0,wail,4140.0,E9poolb,3.0,3,wail,R.poolb,24.0,S
682,39.0,tail,5257.0,E9poolb,4.0,4,tail,R.poolb,24.0,S
683,39.0,jail,807.0,E9poolb,5.0,5,jail,R.poolb,24.0,S
684,39.0,pie,4839.0,E9poolb,0.0,0,pie,R.poolb,25.0,S
685,39.0,fly,4582.0,E9poolb,1.0,1,fly,R.poolb,25.0,S
686,39.0,tie,6537.0,E9poolb,2.0,2,tie,R.poolb,25.0,S
687,39.0,sky,4634.0,E9poolb,3.0,3,sky,R.poolb,25.0,S
688,39.0,eye,4226.0,E9poolb,4.0,4,,R.poolb,25.0,S
689,39.0,cream,4880.0,E9poolb,0.0,0,cream,R.poolb,26.0,S
690,39.0,team,5183.0,E9poolb,1.0,1,team,R.poolb,26.0,S
691,39.0,steam,6424.0,E9poolb,2.0,2,steam,R.poolb,26.0,S
692,39.0,band,4596.0,E9poolb,0.0,0,band,R.poolb,27.0,S
693,39.0,land,4631.0,E9poolb,1.0,1,land,R.poolb,27.0,S
694,39.0,stand,4455.0,E9poolb,2.0,2,hand,R.poolb,27.0,S
695,39.0,hand,4718.0,E9poolb,3.0,,,R.poolb,27.0,S
696,24.0,bath,4798.0,E9poolb,0.0,0,bath,R.poolb,0.0,P
697,24.0,dawn,6622.0,E9poolb,1.0,1,dawn,R.poolb,0.0,P
698,24.0,farm,5891.0,E9poolb,0.0,0,farm,R.poolb,1.0,P
699,24.0,arm,9464.0,E9poolb,1.0,1,arm,R.poolb,1.0,P
700,24.0,earth,5814.0,E9poolb,0.0,0,earth,R.poolb,2.0,P
701,24.0,peach,5078.0,E9poolb,1.0,1,peach,R.poolb,2.0,P
702,24.0,hood,4855.0,E9poolb,0.0,0,hood,R.poolb,3.0,P
703,24.0,wood,4781.0,E9poolb,1.0,1,wood,R.poolb,3.0,P
704,24.0,bread,5203.0,E9poolb,0.0,0,bread,R.poolb,4.0,S
705,24.0,head,4492.0,E9poolb,1.0,1,head,R.poolb,4.0,S
706,24.0,thread,5209.0,E9poolb,2.0,2,,R.poolb,4.0,S
707,24.0,bed,4827.0,E9poolb,3.0,,,R.poolb,4.0,S
708,24.0,coin,4871.0,E9poolb,0.0,0,coin,R.poolb,5.0,D
709,24.0,film,5636.0,E9poolb,1.0,1,map,R.poolb,5.0,D
710,24.0,leaf,5507.0,E9poolb,2.0,2,art,R.poolb,5.0,D
711,24.0,train,6464.0,E9poolb,3.0,,,R.poolb,5.0,D
712,24.0,map,5157.0,E9poolb,4.0,,,R.poolb,5.0,D
713,24.0,art,5560.0,E9poolb,5.0,,,R.poolb,5.0,D
714,24.0,king,5527.0,E9poolb,0.0,0,king,R.poolb,6.0,S
715,24.0,ring,4603.0,E9poolb,1.0,1,ring,R.poolb,6.0,S
716,24.0,spring,5195.0,E9poolb,2.0,2,string,R.poolb,6.0,S
717,24.0,string,5693.0,E9poolb,3.0,3,spring,R.poolb,6.0,S
718,24.0,wing,5338.0,E9poolb,4.0,,,R.poolb,6.0,S
719,24.0,bone,4664.0,E9poolb,0.0,0,bone,R.poolb,7.0,S
720,24.0,phone,5344.0,E9poolb,1.0,1,phone,R.poolb,7.0,S
721,24.0,stone,5003.0,E9poolb,2.0,2,stone,R.poolb,7.0,S
722,24.0,path,6068.0,E9poolb,0.0,0,path,R.poolb,8.0,D
723,24.0,nest,5201.0,E9poolb,1.0,1,nest,R.poolb,8.0,D
724,24.0,square,6098.0,E9poolb,2.0,2,square,R.poolb,8.0,D
725,24.0,wood,5078.0,E9poolb,3.0,3,wood,R.poolb,8.0,D
726,24.0,beach,4331.0,E9poolb,4.0,4,ship,R.poolb,8.0,D
727,24.0,doll,4764.0,E9poolb,0.0,0,doll,R.poolb,9.0,S
728,24.0,ball,4591.0,E9poolb,1.0,1,ball,R.poolb,9.0,S
729,24.0,shawl,5601.0,E9poolb,2.0,2,shawl,R.poolb,9.0,S
730,24.0,hall,4904.0,E9poolb,3.0,3,brawl,R.poolb,9.0,S
731,24.0,brawl,4245.0,E9poolb,4.0,,,R.poolb,9.0,S
732,24.0,wall,4895.0,E9poolb,5.0,,,R.poolb,9.0,S
733,24.0,rice,3712.0,E9poolb,0.0,0,rice,R.poolb,10.0,D
734,24.0,cat,4310.0,E9poolb,1.0,1,cat,R.poolb,10.0,D
735,24.0,trash,4348.0,E9poolb,2.0,2,trash,R.poolb,10.0,D
736,24.0,neck,4341.0,E9poolb,0.0,0,neck,R.poolb,11.0,D
737,24.0,town,4682.0,E9poolb,1.0,1,town,R.poolb,11.0,D
738,24.0,hat,5031.0,E9poolb,2.0,2,hat,R.poolb,11.0,D
739,24.0,street,5616.0,E9poolb,3.0,3,street,R.poolb,11.0,D
740,24.0,blouse,4730.0,E9poolb,0.0,0,blouse,R.poolb,12.0,S
741,24.0,house,4589.0,E9poolb,1.0,1,house,R.poolb,12.0,S
742,24.0,mouse,5120.0,E9poolb,2.0,2,mouse,R.poolb,12.0,S
743,24.0,chest,4040.0,E9poolb,0.0,0,chest,R.poolb,13.0,D
744,24.0,lane,4497.0,E9poolb,1.0,1,crown,R.poolb,13.0,D
745,24.0,hair,5824.0,E9poolb,2.0,,,R.poolb,13.0,D
746,24.0,crown,4471.0,E9poolb,3.0,,,R.poolb,13.0,D
747,24.0,jar,4681.0,E9poolb,0.0,0,jar,R.poolb,14.0,S
748,24.0,bar,4776.0,E9poolb,1.0,1,bar,R.poolb,14.0,S
749,24.0,car,5274.0,E9poolb,2.0,2,star,R.poolb,14.0,S
750,24.0,scar,5152.0,E9poolb,3.0,,,R.poolb,14.0,S
751,24.0,star,5203.0,E9poolb,4.0,,,R.poolb,14.0,S
752,24.0,deer,4503.0,E9poolb,0.0,0,deer,R.poolb,15.0,S
753,24.0,sphere,4236.0,E9poolb,1.0,1,sphere,R.poolb,15.0,S
754,24.0,ear,5116.0,E9poolb,2.0,2,ear,R.poolb,15.0,S
755,24.0,tear,5416.0,E9poolb,3.0,3,tear,R.poolb,15.0,S
756,24.0,toy,4168.0,E9poolb,0.0,0,toy,R.poolb,16.0,D
757,24.0,wreck,4538.0,E9poolb,1.0,1,wreck,R.poolb,16.0,D
758,24.0,frown,5495.0,E9poolb,2.0,2,frown,R.poolb,16.0,D
759,24.0,ant,4310.0,E9poolb,0.0,0,ant,R.poolb,17.0,D
760,24.0,air,4749.0,E9poolb,1.0,1,air,R.poolb,17.0,D
761,24.0,ink,5184.0,E9poolb,2.0,2,cloud,R.poolb,17.0,D
762,24.0,cloud,5377.0,E9poolb,3.0,3,breath,R.poolb,17.0,D
763,24.0,seat,5307.0,E9poolb,4.0,4,ink,R.poolb,17.0,D
764,24.0,breath,5000.0,E9poolb,5.0,,,R.poolb,17.0,D
765,24.0,boot,5082.0,E9poolb,0.0,0,suit,R.poolb,18.0,S
766,24.0,suit,4423.0,E9poolb,1.0,1,boot,R.poolb,18.0,S
767,24.0,flute,4785.0,E9poolb,2.0,2,brute,R.poolb,18.0,S
768,24.0,loot,4554.0,E9poolb,3.0,3,loot,R.poolb,18.0,S
769,24.0,root,5182.0,E9poolb,4.0,,,R.poolb,18.0,S
770,24.0,brute,5095.0,E9poolb,5.0,,,R.poolb,18.0,S
771,24.0,spice,4516.0,E9poolb,0.0,0,spice,R.poolb,19.0,D
772,24.0,heat,5216.0,E9poolb,1.0,1,heat,R.poolb,19.0,D
773,24.0,shape,4768.0,E9poolb,2.0,2,guest,R.poolb,19.0,D
774,24.0,pear,4532.0,E9poolb,3.0,,,R.poolb,19.0,D
775,24.0,guest,4720.0,E9poolb,4.0,,,R.poolb,19.0,D
776,24.0,mare,4498.0,E9poolb,0.0,0,mare,R.poolb,20.0,D
777,24.0,bell,5440.0,E9poolb,1.0,1,bell,R.poolb,20.0,D
778,24.0,brain,6095.0,E9poolb,2.0,2,beef,R.poolb,20.0,D
779,24.0,beef,4539.0,E9poolb,3.0,,,R.poolb,20.0,D
780,24.0,band,4371.0,E9poolb,0.0,0,band,R.poolb,21.0,S
781,24.0,land,4678.0,E9poolb,1.0,1,land,R.poolb,21.0,S
782,24.0,stand,4844.0,E9poolb,2.0,2,stand,R.poolb,21.0,S
783,24.0,hand,5811.0,E9poolb,3.0,3,hand,R.poolb,21.0,S
784,24.0,beard,4212.0,E9poolb,0.0,0,hill,R.poolb,22.0,D
785,24.0,hill,4341.0,E9poolb,1.0,1,beard,R.poolb,22.0,D
786,24.0,dirt,4457.0,E9poolb,2.0,2,line,R.poolb,22.0,D
787,24.0,card,4192.0,E9poolb,3.0,,,R.poolb,22.0,D
788,24.0,line,4779.0,E9poolb,4.0,,,R.poolb,22.0,D
789,24.0,pie,5180.0,E9poolb,0.0,0,pie,R.poolb,23.0,S
790,24.0,fly,3885.0,E9poolb,1.0,1,fly,R.poolb,23.0,S
791,24.0,tie,3947.0,E9poolb,2.0,2,tie,R.poolb,23.0,S
792,24.0,sky,4824.0,E9poolb,3.0,3,eye,R.poolb,23.0,S
793,24.0,eye,5145.0,E9poolb,4.0,,,R.poolb,23.0,S
794,24.0,cream,4248.0,E9poolb,0.0,0,cream,R.poolb,24.0,S
795,24.0,team,4439.0,E9poolb,1.0,1,team,R.poolb,24.0,S
796,24.0,steam,4592.0,E9poolb,2.0,2,steam,R.poolb,24.0,S
797,24.0,mail,4203.0,E9poolb,0.0,0,sail,R.poolb,25.0,S
798,24.0,sail,4436.0,E9poolb,1.0,1,mail,R.poolb,25.0,S
799,24.0,trail,4365.0,E9poolb,2.0,2,wail,R.poolb,25.0,S
800,24.0,wail,4808.0,E9poolb,3.0,3,jail,R.poolb,25.0,S
801,24.0,tail,5281.0,E9poolb,4.0,,,R.poolb,25.0,S
802,24.0,jail,4286.0,E9poolb,5.0,,,R.poolb,25.0,S
803,24.0,shell,3824.0,E9poolb,0.0,0,group,R.poolb,26.0,D
804,24.0,tree,4154.0,E9poolb,1.0,1,shell,R.poolb,26.0,D
805,24.0,bowl,6285.0,E9poolb,2.0,2,tree,R.poolb,26.0,D
806,24.0,broom,5810.0,E9poolb,3.0,3,bowl,R.poolb,26.0,D
807,24.0,test,5290.0,E9poolb,4.0,,,R.poolb,26.0,D
808,24.0,ground,4687.0,E9poolb,5.0,,,R.poolb,26.0,D
809,24.0,deck,4822.0,E9poolb,0.0,0,slice,R.poolb,27.0,D
810,24.0,slice,4445.0,E9poolb,1.0,1,deck,R.poolb,27.0,D
811,24.0,rat,4582.0,E9poolb,2.0,2,rat,R.poolb,27.0,D
812,30.0,farm,8952.0,E9poolb,0.0,0,farm,R.poolb,0.0,P
813,30.0,arm,5711.0,E9poolb,1.0,1,arm,R.poolb,0.0,P
814,30.0,bath,5294.0,E9poolb,0.0,0,rice,R.poolb,1.0,P
815,30.0,dawn,4732.0,E9poolb,1.0,1,dawn,R.poolb,1.0,P
816,30.0,earth,5659.0,E9poolb,0.0,0,earth,R.poolb,2.0,P
817,30.0,peach,5737.0,E9poolb,1.0,1,peach,R.poolb,2.0,P
818,30.0,hood,5623.0,E9poolb,0.0,0,hood,R.poolb,3.0,P
819,30.0,wood,5246.0,E9poolb,1.0,1,wood,R.poolb,3.0,P
820,30.0,neck,4770.0,E9poolb,0.0,0,neck,R.poolb,4.0,D
821,30.0,town,5102.0,E9poolb,1.0,1,town,R.poolb,4.0,D
822,30.0,hat,5907.0,E9poolb,2.0,2,hat,R.poolb,4.0,D
823,30.0,street,5191.0,E9poolb,3.0,3,street,R.poolb,4.0,D
824,30.0,path,4670.0,E9poolb,0.0,0,paint,R.poolb,5.0,D
825,30.0,nest,5877.0,E9poolb,1.0,1,,R.poolb,5.0,D
826,30.0,square,5650.0,E9poolb,2.0,2,,R.poolb,5.0,D
827,30.0,wood,5080.0,E9poolb,3.0,3,,R.poolb,5.0,D
828,30.0,beach,5791.0,E9poolb,4.0,4,,R.poolb,5.0,D
829,30.0,bread,5443.0,E9poolb,0.0,0,bread,R.poolb,6.0,S
830,30.0,head,5385.0,E9poolb,1.0,1,thread,R.poolb,6.0,S
831,30.0,thread,5226.0,E9poolb,2.0,2,head,R.poolb,6.0,S
832,30.0,bed,5970.0,E9poolb,3.0,3,bed,R.poolb,6.0,S
833,30.0,rice,4721.0,E9poolb,0.0,0,rice,R.poolb,7.0,D
834,30.0,cat,5526.0,E9poolb,1.0,1,cat,R.poolb,7.0,D
835,30.0,trash,5266.0,E9poolb,2.0,2,trash,R.poolb,7.0,D
836,30.0,coin,4688.0,E9poolb,0.0,0,coin,R.poolb,8.0,D
837,30.0,film,5638.0,E9poolb,1.0,1,film,R.poolb,8.0,D
838,30.0,leaf,5590.0,E9poolb,2.0,2,,R.poolb,8.0,D
839,30.0,train,4990.0,E9poolb,3.0,3,,R.poolb,8.0,D
840,30.0,map,5025.0,E9poolb,4.0,4,,R.poolb,8.0,D
841,30.0,art,5768.0,E9poolb,5.0,5,art,R.poolb,8.0,D
842,30.0,king,5200.0,E9poolb,0.0,0,king,R.poolb,9.0,S
843,30.0,ring,5001.0,E9poolb,1.0,1,string,R.poolb,9.0,S
844,30.0,spring,4936.0,E9poolb,2.0,2,,R.poolb,9.0,S
845,30.0,string,6197.0,E9poolb,3.0,3,wing,R.poolb,9.0,S
846,30.0,wing,4597.0,E9poolb,4.0,4,,R.poolb,9.0,S
847,30.0,cream,4797.0,E9poolb,0.0,0,cream,R.poolb,10.0,S
848,30.0,team,4615.0,E9poolb,1.0,1,team,R.poolb,10.0,S
849,30.0,steam,6176.0,E9poolb,2.0,2,steam,R.poolb,10.0,S
850,30.0,doll,5430.0,E9poolb,0.0,0,doll,R.poolb,11.0,S
851,30.0,ball,5036.0,E9poolb,1.0,1,ball,R.poolb,11.0,S
852,30.0,shawl,5564.0,E9poolb,2.0,2,hall,R.poolb,11.0,S
853,30.0,hall,5479.0,E9poolb,3.0,3,,R.poolb,11.0,S
854,30.0,brawl,4893.0,E9poolb,4.0,4,,R.poolb,11.0,S
855,30.0,wall,5459.0,E9poolb,5.0,5,wall,R.poolb,11.0,S
856,30.0,chest,5312.0,E9poolb,0.0,0,,R.poolb,12.0,D
857,30.0,lane,5206.0,E9poolb,1.0,1,,R.poolb,12.0,D
858,30.0,hair,4919.0,E9poolb,2.0,2,,R.poolb,12.0,D
859,30.0,crown,5778.0,E9poolb,3.0,3,crown,R.poolb,12.0,D
860,30.0,bone,5196.0,E9poolb,0.0,0,bone,R.poolb,13.0,S
861,30.0,phone,5029.0,E9poolb,1.0,1,phone,R.poolb,13.0,S
862,30.0,stone,5942.0,E9poolb,2.0,2,,R.poolb,13.0,S
863,30.0,toy,5353.0,E9poolb,0.0,0,,R.poolb,14.0,D
864,30.0,wreck,4692.0,E9poolb,1.0,1,,R.poolb,14.0,D
865,30.0,frown,4723.0,E9poolb,2.0,2,wreck,R.poolb,14.0,D
866,30.0,spice,5093.0,E9poolb,0.0,0,,R.poolb,15.0,D
867,30.0,heat,4692.0,E9poolb,1.0,1,,R.poolb,15.0,D
868,30.0,shape,6048.0,E9poolb,2.0,2,pear,R.poolb,15.0,D
869,30.0,pear,6662.0,E9poolb,3.0,3,heat,R.poolb,15.0,D
870,30.0,guest,4917.0,E9poolb,4.0,4,guest,R.poolb,15.0,D
871,30.0,ant,5753.0,E9poolb,0.0,0,ant,R.poolb,16.0,D
872,30.0,air,4644.0,E9poolb,1.0,1,air,R.poolb,16.0,D
873,30.0,ink,5475.0,E9poolb,2.0,2,,R.poolb,16.0,D
874,30.0,cloud,4361.0,E9poolb,3.0,3,,R.poolb,16.0,D
875,30.0,seat,5316.0,E9poolb,4.0,4,,R.poolb,16.0,D
876,30.0,breath,4767.0,E9poolb,5.0,5,breath,R.poolb,16.0,D
877,30.0,deer,5274.0,E9poolb,0.0,0,,R.poolb,17.0,S
878,30.0,sphere,6080.0,E9poolb,1.0,1,,R.poolb,17.0,S
879,30.0,ear,5045.0,E9poolb,2.0,2,pear,R.poolb,17.0,S
880,30.0,tear,5812.0,E9poolb,3.0,3,tear,R.poolb,17.0,S
881,30.0,jar,4624.0,E9poolb,0.0,0,jar,R.poolb,18.0,S
882,30.0,bar,5144.0,E9poolb,1.0,1,bar,R.poolb,18.0,S
883,30.0,car,6227.0,E9poolb,2.0,2,scar,R.poolb,18.0,S
884,30.0,scar,4923.0,E9poolb,3.0,3,star,R.poolb,18.0,S
885,30.0,star,5280.0,E9poolb,4.0,4,,R.poolb,18.0,S
886,30.0,boot,4753.0,E9poolb,0.0,0,flute,R.poolb,19.0,S
887,30.0,suit,4692.0,E9poolb,1.0,1,suit,R.poolb,19.0,S
888,30.0,flute,5970.0,E9poolb,2.0,2,,R.poolb,19.0,S
889,30.0,loot,5516.0,E9poolb,3.0,3,,R.poolb,19.0,S
890,30.0,root,6016.0,E9poolb,4.0,4,loot,R.poolb,19.0,S
891,30.0,brute,5223.0,E9poolb,5.0,5,brute,R.poolb,19.0,S
892,30.0,blouse,6046.0,E9poolb,0.0,0,blouse,R.poolb,20.0,S
893,30.0,house,5492.0,E9poolb,1.0,1,house,R.poolb,20.0,S
894,30.0,mouse,4826.0,E9poolb,2.0,2,mouse,R.poolb,20.0,S
895,30.0,beard,5255.0,E9poolb,0.0,0,,R.poolb,21.0,D
896,30.0,hill,4724.0,E9poolb,1.0,1,,R.poolb,21.0,D
897,30.0,dirt,5122.0,E9poolb,2.0,2,,R.poolb,21.0,D
898,30.0,card,5606.0,E9poolb,3.0,3,rice,R.poolb,21.0,D
899,30.0,line,5142.0,E9poolb,4.0,4,line,R.poolb,21.0,D
900,30.0,mail,5738.0,E9poolb,0.0,0,mail,R.poolb,22.0,S
901,30.0,sail,4988.0,E9poolb,1.0,1,sail,R.poolb,22.0,S
902,30.0,trail,7207.0,E9poolb,2.0,2,,R.poolb,22.0,S
903,30.0,wail,4837.0,E9poolb,3.0,3,,R.poolb,22.0,S
904,30.0,tail,5941.0,E9poolb,4.0,4,,R.poolb,22.0,S
905,30.0,jail,5551.0,E9poolb,5.0,5,jail,R.poolb,22.0,S
906,30.0,pie,4671.0,E9poolb,0.0,0,pie,R.poolb,23.0,S
907,30.0,fly,5157.0,E9poolb,1.0,1,tie,R.poolb,23.0,S
908,30.0,tie,6040.0,E9poolb,2.0,2,,R.poolb,23.0,S
909,30.0,sky,6030.0,E9poolb,3.0,3,,R.poolb,23.0,S
910,30.0,eye,5029.0,E9poolb,4.0,4,eye,R.poolb,23.0,S
911,30.0,band,4732.0,E9poolb,0.0,0,band,R.poolb,24.0,S
912,30.0,land,4712.0,E9poolb,1.0,1,land,R.poolb,24.0,S
913,30.0,stand,4909.0,E9poolb,2.0,2,hand,R.poolb,24.0,S
914,30.0,hand,4522.0,E9poolb,3.0,3,,R.poolb,24.0,S
915,30.0,shell,5368.0,E9poolb,0.0,0,tree,R.poolb,25.0,D
916,30.0,tree,6162.0,E9poolb,1.0,1,,R.poolb,25.0,D
917,30.0,bowl,4827.0,E9poolb,2.0,2,,R.poolb,25.0,D
918,30.0,broom,5948.0,E9poolb,3.0,3,,R.poolb,25.0,D
919,30.0,test,4574.0,E9poolb,4.0,4,ground,R.poolb,25.0,D
920,30.0,ground,6233.0,E9poolb,5.0,5,,R.poolb,25.0,D
921,30.0,deck,5837.0,E9poolb,0.0,0,,R.poolb,26.0,D
922,30.0,slice,5331.0,E9poolb,1.0,1,slice,R.poolb,26.0,D
923,30.0,rat,4982.0,E9poolb,2.0,2,rat,R.poolb,26.0,D
924,30.0,mare,5037.0,E9poolb,0.0,0,mare,R.poolb,27.0,D
925,30.0,bell,5109.0,E9poolb,1.0,1,bell,R.poolb,27.0,D
926,30.0,brain,6010.0,E9poolb,2.0,2,brain,R.poolb,27.0,D
927,30.0,beef,4434.0,E9poolb,3.0,3,beef,R.poolb,27.0,D
928,38.0,earth,4770.0,E9poolb,0.0,0,rice,R.poolb,0.0,P
929,38.0,peach,4837.0,E9poolb,1.0,1,peach,R.poolb,0.0,P
930,38.0,farm,4480.0,E9poolb,0.0,0,farm,R.poolb,1.0,P
931,38.0,arm,4495.0,E9poolb,1.0,1,arm,R.poolb,1.0,P
932,38.0,bath,4153.0,E9poolb,0.0,0,bath,R.poolb,2.0,P
933,38.0,dawn,4356.0,E9poolb,1.0,1,dawn,R.poolb,2.0,P
934,38.0,hood,4025.0,E9poolb,0.0,0,hood,R.poolb,3.0,P
935,38.0,wood,3897.0,E9poolb,1.0,1,wood,R.poolb,3.0,P
936,38.0,path,4209.0,E9poolb,0.0,0,path,R.poolb,4.0,D
937,38.0,nest,4178.0,E9poolb,1.0,1,,R.poolb,4.0,D
938,38.0,square,4062.0,E9poolb,2.0,2,wood,R.poolb,4.0,D
939,38.0,wood,4780.0,E9poolb,3.0,3,,R.poolb,4.0,D
940,38.0,beach,4975.0,E9poolb,4.0,4,beach,R.poolb,4.0,D
941,38.0,doll,5065.0,E9poolb,0.0,0,ball,R.poolb,5.0,S
942,38.0,ball,4247.0,E9poolb,1.0,1,doll,R.poolb,5.0,S
943,38.0,shawl,4166.0,E9poolb,2.0,2,shawl,R.poolb,5.0,S
944,38.0,hall,4002.0,E9poolb,3.0,3,hall,R.poolb,5.0,S
945,38.0,brawl,4308.0,E9poolb,4.0,4,brawl,R.poolb,5.0,S
946,38.0,wall,4274.0,E9poolb,5.0,5,,R.poolb,5.0,S
947,38.0,bread,4210.0,E9poolb,0.0,0,bread,R.poolb,6.0,S
948,38.0,head,4948.0,E9poolb,1.0,1,head,R.poolb,6.0,S
949,38.0,thread,4159.0,E9poolb,2.0,2,thread,R.poolb,6.0,S
950,38.0,bed,4219.0,E9poolb,3.0,3,bed,R.poolb,6.0,S
951,38.0,neck,4478.0,E9poolb,0.0,0,neck,R.poolb,7.0,D
952,38.0,town,4252.0,E9poolb,1.0,1,bread,R.poolb,7.0,D
953,38.0,hat,4195.0,E9poolb,2.0,2,bed,R.poolb,7.0,D
954,38.0,street,4007.0,E9poolb,3.0,3,town,R.poolb,7.0,D
955,38.0,cream,4398.0,E9poolb,0.0,0,cream,R.poolb,8.0,S
956,38.0,team,4512.0,E9poolb,1.0,1,team,R.poolb,8.0,S
957,38.0,steam,4228.0,E9poolb,2.0,2,steam,R.poolb,8.0,S
958,38.0,king,4228.0,E9poolb,0.0,0,string,R.poolb,9.0,S
959,38.0,ring,4101.0,E9poolb,1.0,1,bring,R.poolb,9.0,S
960,38.0,spring,4314.0,E9poolb,2.0,2,,R.poolb,9.0,S
961,38.0,string,4503.0,E9poolb,3.0,3,king,R.poolb,9.0,S
962,38.0,wing,3924.0,E9poolb,4.0,4,,R.poolb,9.0,S
963,38.0,rice,4534.0,E9poolb,0.0,0,rice,R.poolb,10.0,D
964,38.0,cat,3827.0,E9poolb,1.0,1,cat,R.poolb,10.0,D
965,38.0,trash,3796.0,E9poolb,2.0,2,trash,R.poolb,10.0,D
966,38.0,coin,4185.0,E9poolb,0.0,0,coin,R.poolb,11.0,D
967,38.0,film,3939.0,E9poolb,1.0,1,film,R.poolb,11.0,D
968,38.0,leaf,4024.0,E9poolb,2.0,2,,R.poolb,11.0,D
969,38.0,train,5202.0,E9poolb,3.0,,,R.poolb,11.0,D
970,38.0,map,3635.0,E9poolb,4.0,,,R.poolb,11.0,D
971,38.0,art,4299.0,E9poolb,5.0,,,R.poolb,11.0,D
972,38.0,boot,4430.0,E9poolb,0.0,0,boot,R.poolb,12.0,S
973,38.0,suit,3839.0,E9poolb,1.0,1,suit,R.poolb,12.0,S
974,38.0,flute,4128.0,E9poolb,2.0,2,flute,R.poolb,12.0,S
975,38.0,loot,5397.0,E9poolb,3.0,3,,R.poolb,12.0,S
976,38.0,root,3869.0,E9poolb,4.0,4,brute,R.poolb,12.0,S
977,38.0,brute,4325.0,E9poolb,5.0,5,,R.poolb,12.0,S
978,38.0,deer,4704.0,E9poolb,0.0,0,deer,R.poolb,13.0,S
979,38.0,sphere,3821.0,E9poolb,1.0,1,sphere,R.poolb,13.0,S
980,38.0,ear,3831.0,E9poolb,2.0,2,here,R.poolb,13.0,S
981,38.0,tear,4142.0,E9poolb,3.0,3,tear,R.poolb,13.0,S
982,38.0,chest,4155.0,E9poolb,0.0,0,,R.poolb,14.0,D
983,38.0,lane,4279.0,E9poolb,1.0,1,,R.poolb,14.0,D
984,38.0,hair,3726.0,E9poolb,2.0,2,chest,R.poolb,14.0,D
985,38.0,crown,4548.0,E9poolb,3.0,3,crown,R.poolb,14.0,D
986,38.0,bone,3894.0,E9poolb,0.0,0,bone,R.poolb,15.0,S
987,38.0,phone,4062.0,E9poolb,1.0,1,phone,R.poolb,15.0,S
988,38.0,stone,3846.0,E9poolb,2.0,2,stone,R.poolb,15.0,S
989,38.0,spice,4050.0,E9poolb,0.0,0,spice,R.poolb,16.0,D
990,38.0,heat,3874.0,E9poolb,1.0,1,heat,R.poolb,16.0,D
991,38.0,shape,3481.0,E9poolb,2.0,2,shape,R.poolb,16.0,D
992,38.0,pear,3936.0,E9poolb,3.0,3,,R.poolb,16.0,D
993,38.0,guest,4420.0,E9poolb,4.0,4,guest,R.poolb,16.0,D
994,38.0,jar,3820.0,E9poolb,0.0,0,jar,R.poolb,17.0,S
995,38.0,bar,3798.0,E9poolb,1.0,1,bar,R.poolb,17.0,S
996,38.0,car,4479.0,E9poolb,2.0,2,car,R.poolb,17.0,S
997,38.0,scar,4959.0,E9poolb,3.0,3,scar,R.poolb,17.0,S
998,38.0,star,5074.0,E9poolb,4.0,4,star,R.poolb,17.0,S
999,38.0,ant,4930.0,E9poolb,0.0,0,ant,R.poolb,18.0,D
1000,38.0,air,3999.0,E9poolb,1.0,1,air,R.poolb,18.0,D
1001,38.0,ink,3887.0,E9poolb,2.0,2,ink,R.poolb,18.0,D
1002,38.0,cloud,4767.0,E9poolb,3.0,3,,R.poolb,18.0,D
1003,38.0,seat,3993.0,E9poolb,4.0,4,,R.poolb,18.0,D
1004,38.0,breath,3988.0,E9poolb,5.0,5,breath,R.poolb,18.0,D
1005,38.0,toy,4319.0,E9poolb,0.0,0,curse,R.poolb,19.0,D
1006,38.0,wreck,4291.0,E9poolb,1.0,1,wreck,R.poolb,19.0,D
1007,38.0,frown,4642.0,E9poolb,2.0,2,frown,R.poolb,19.0,D
1008,38.0,mare,4322.0,E9poolb,0.0,0,mare,R.poolb,20.0,D
1009,38.0,bell,3871.0,E9poolb,1.0,1,,R.poolb,20.0,D
1010,38.0,brain,3870.0,E9poolb,2.0,2,bell,R.poolb,20.0,D
1011,38.0,beef,4350.0,E9poolb,3.0,3,beef,R.poolb,20.0,D
1012,38.0,deck,4337.0,E9poolb,0.0,0,deck,R.poolb,21.0,D
1013,38.0,slice,3933.0,E9poolb,1.0,1,slice,R.poolb,21.0,D
1014,38.0,rat,3833.0,E9poolb,2.0,2,rat,R.poolb,21.0,D
1015,38.0,mail,7169.0,E9poolb,0.0,0,mail,R.poolb,22.0,S
1016,38.0,sail,3881.0,E9poolb,1.0,1,tail,R.poolb,22.0,S
1017,38.0,trail,4439.0,E9poolb,2.0,2,trail,R.poolb,22.0,S
1018,38.0,wail,4471.0,E9poolb,3.0,3,sail,R.poolb,22.0,S
1019,38.0,tail,4326.0,E9poolb,4.0,4,bail,R.poolb,22.0,S
1020,38.0,jail,4083.0,E9poolb,5.0,5,fail,R.poolb,22.0,S
1021,38.0,shell,4143.0,E9poolb,0.0,0,ball,R.poolb,23.0,D
1022,38.0,tree,4611.0,E9poolb,1.0,1,,R.poolb,23.0,D
1023,38.0,bowl,5372.0,E9poolb,2.0,2,broom,R.poolb,23.0,D
1024,38.0,broom,4006.0,E9poolb,3.0,3,,R.poolb,23.0,D
1025,38.0,test,2416.0,E9poolb,4.0,,,R.poolb,23.0,D
1026,38.0,ground,6627.0,E9poolb,5.0,,,R.poolb,23.0,D
1027,38.0,band,4647.0,E9poolb,0.0,0,band,R.poolb,24.0,S
1028,38.0,land,4062.0,E9poolb,1.0,1,,R.poolb,24.0,S
1029,38.0,stand,3638.0,E9poolb,2.0,2,stand,R.poolb,24.0,S
1030,38.0,hand,4591.0,E9poolb,3.0,3,hand,R.poolb,24.0,S
1031,38.0,blouse,4115.0,E9poolb,0.0,0,blouse,R.poolb,25.0,S
1032,38.0,house,4392.0,E9poolb,1.0,1,house,R.poolb,25.0,S
1033,38.0,mouse,4137.0,E9poolb,2.0,2,mouse,R.poolb,25.0,S
1034,38.0,beard,4384.0,E9poolb,0.0,0,beard,R.poolb,26.0,D
1035,38.0,hill,4018.0,E9poolb,1.0,1,hill,R.poolb,26.0,D
1036,38.0,dirt,3819.0,E9poolb,2.0,2,,R.poolb,26.0,D
1037,38.0,card,4220.0,E9poolb,3.0,3,line,R.poolb,26.0,D
1038,38.0,line,4517.0,E9poolb,4.0,4,,R.poolb,26.0,D
1039,38.0,pie,4076.0,E9poolb,0.0,0,pie,R.poolb,27.0,S
1040,38.0,fly,4027.0,E9poolb,1.0,1,,R.poolb,27.0,S
1041,38.0,tie,4668.0,E9poolb,2.0,2,tie,R.poolb,27.0,S
1042,38.0,sky,4699.0,E9poolb,3.0,3,shy,R.poolb,27.0,S
1043,38.0,eye,3871.0,E9poolb,4.0,4,lie,R.poolb,27.0,S
1044,50.0,hood,7233.0,E9poolb,0.0,0,hood,R.poolb,0.0,P
1045,50.0,wood,5534.0,E9poolb,1.0,1,wood,R.poolb,0.0,P
1046,50.0,bath,5609.0,E9poolb,0.0,0,bath,R.poolb,1.0,P
1047,50.0,dawn,5391.0,E9poolb,1.0,1,dawn,R.poolb,1.0,P
1048,50.0,earth,5536.0,E9poolb,0.0,0,earth,R.poolb,2.0,P
1049,50.0,peach,4795.0,E9poolb,1.0,1,peach,R.poolb,2.0,P
1050,50.0,farm,5477.0,E9poolb,0.0,0,farm,R.poolb,3.0,P
1051,50.0,arm,7497.0,E9poolb,1.0,1,arm,R.poolb,3.0,P
1052,50.0,blouse,5483.0,E9poolb,0.0,0,blouse,R.poolb,4.0,S
1053,50.0,house,5055.0,E9poolb,1.0,1,house,R.poolb,4.0,S
1054,50.0,mouse,5206.0,E9poolb,2.0,2,mouse,R.poolb,4.0,S
1055,50.0,doll,4819.0,E9poolb,0.0,0,doll,R.poolb,5.0,S
1056,50.0,ball,5651.0,E9poolb,1.0,1,hall,R.poolb,5.0,S
1057,50.0,shawl,5449.0,E9poolb,2.0,2,mall,R.poolb,5.0,S
1058,50.0,hall,4575.0,E9poolb,3.0,3,,R.poolb,5.0,S
1059,50.0,brawl,4530.0,E9poolb,4.0,4,brawl,R.poolb,5.0,S
1060,50.0,wall,5134.0,E9poolb,5.0,5,,R.poolb,5.0,S
1061,50.0,neck,6436.0,E9poolb,0.0,0,neck,R.poolb,6.0,D
1062,50.0,town,5202.0,E9poolb,1.0,1,,R.poolb,6.0,D
1063,50.0,hat,4891.0,E9poolb,2.0,2,hat,R.poolb,6.0,D
1064,50.0,street,5000.0,E9poolb,3.0,3,street,R.poolb,6.0,D
1065,50.0,path,4650.0,E9poolb,0.0,0,path,R.poolb,7.0,D
1066,50.0,nest,5451.0,E9poolb,1.0,1,nest,R.poolb,7.0,D
1067,50.0,square,4497.0,E9poolb,2.0,2,square,R.poolb,7.0,D
1068,50.0,wood,4638.0,E9poolb,3.0,3,wood,R.poolb,7.0,D
1069,50.0,beach,4749.0,E9poolb,4.0,4,beach,R.poolb,7.0,D
1070,50.0,bread,4786.0,E9poolb,0.0,0,bread,R.poolb,8.0,S
1071,50.0,head,4868.0,E9poolb,1.0,1,head,R.poolb,8.0,S
1072,50.0,thread,4859.0,E9poolb,2.0,2,thread,R.poolb,8.0,S
1073,50.0,bed,5306.0,E9poolb,3.0,3,bed,R.poolb,8.0,S
1074,50.0,rice,4698.0,E9poolb,0.0,0,rice,R.poolb,9.0,D
1075,50.0,cat,5070.0,E9poolb,1.0,1,cat,R.poolb,9.0,D
1076,50.0,trash,4973.0,E9poolb,2.0,2,trash,R.poolb,9.0,D
1077,50.0,king,4956.0,E9poolb,0.0,0,king,R.poolb,10.0,S
1078,50.0,ring,4390.0,E9poolb,1.0,1,ring,R.poolb,10.0,S
1079,50.0,spring,4192.0,E9poolb,2.0,2,spring,R.poolb,10.0,S
1080,50.0,string,4409.0,E9poolb,3.0,3,string,R.poolb,10.0,S
1081,50.0,wing,6002.0,E9poolb,4.0,4,wing,R.poolb,10.0,S
1082,50.0,coin,5320.0,E9poolb,0.0,0,coin,R.poolb,11.0,D
1083,50.0,film,5251.0,E9poolb,1.0,1,film,R.poolb,11.0,D
1084,50.0,leaf,4978.0,E9poolb,2.0,2,,R.poolb,11.0,D
1085,50.0,train,5004.0,E9poolb,3.0,3,leaves,R.poolb,11.0,D
1086,50.0,map,4355.0,E9poolb,4.0,4,train,R.poolb,11.0,D
1087,50.0,art,4951.0,E9poolb,5.0,5,art,R.poolb,11.0,D
1088,50.0,spice,4691.0,E9poolb,0.0,0,spice,R.poolb,12.0,D
1089,50.0,heat,5050.0,E9poolb,1.0,1,heat,R.poolb,12.0,D
1090,50.0,shape,4128.0,E9poolb,2.0,2,,R.poolb,12.0,D
1091,50.0,pear,4556.0,E9poolb,3.0,3,,R.poolb,12.0,D
1092,50.0,guest,5864.0,E9poolb,4.0,4,guest,R.poolb,12.0,D
1093,50.0,jar,4775.0,E9poolb,0.0,0,jar,R.poolb,13.0,S
1094,50.0,bar,4576.0,E9poolb,1.0,1,bar,R.poolb,13.0,S
1095,50.0,car,4675.0,E9poolb,2.0,2,car,R.poolb,13.0,S
1096,50.0,scar,4801.0,E9poolb,3.0,3,scar,R.poolb,13.0,S
1097,50.0,star,4690.0,E9poolb,4.0,4,star,R.poolb,13.0,S
1098,50.0,toy,4150.0,E9poolb,0.0,0,toy,R.poolb,14.0,D
1099,50.0,wreck,4096.0,E9poolb,1.0,1,wreck,R.poolb,14.0,D
1100,50.0,frown,4119.0,E9poolb,2.0,2,frown,R.poolb,14.0,D
1101,50.0,ant,4147.0,E9poolb,0.0,0,ant,R.poolb,15.0,D
1102,50.0,air,4615.0,E9poolb,1.0,1,air,R.poolb,15.0,D
1103,50.0,ink,4078.0,E9poolb,2.0,2,,R.poolb,15.0,D
1104,50.0,cloud,4693.0,E9poolb,3.0,3,,R.poolb,15.0,D
1105,50.0,seat,4066.0,E9poolb,4.0,4,,R.poolb,15.0,D
1106,50.0,breath,4353.0,E9poolb,5.0,5,breath,R.poolb,15.0,D
1107,50.0,deer,5202.0,E9poolb,0.0,0,deer,R.poolb,16.0,S
1108,50.0,sphere,4849.0,E9poolb,1.0,1,sphere,R.poolb,16.0,S
1109,50.0,ear,4608.0,E9poolb,2.0,2,,R.poolb,16.0,S
1110,50.0,tear,4201.0,E9poolb,3.0,3,tear,R.poolb,16.0,S
1111,50.0,boot,4457.0,E9poolb,0.0,0,boot,R.poolb,17.0,S
1112,50.0,suit,4616.0,E9poolb,1.0,1,suit,R.poolb,17.0,S
1113,50.0,flute,5168.0,E9poolb,2.0,2,flute,R.poolb,17.0,S
1114,50.0,loot,4467.0,E9poolb,3.0,3,loot,R.poolb,17.0,S
1115,50.0,root,5537.0,E9poolb,4.0,4,,R.poolb,17.0,S
1116,50.0,brute,4707.0,E9poolb,5.0,5,brute,R.poolb,17.0,S
1117,50.0,chest,5652.0,E9poolb,0.0,0,chest,R.poolb,18.0,D
1118,50.0,lane,4377.0,E9poolb,1.0,1,lane,R.poolb,18.0,D
1119,50.0,hair,4588.0,E9poolb,2.0,2,hair,R.poolb,18.0,D
1120,50.0,crown,4325.0,E9poolb,3.0,3,crown,R.poolb,18.0,D
1121,50.0,cream,4259.0,E9poolb,0.0,0,cream,R.poolb,19.0,S
1122,50.0,team,5633.0,E9poolb,1.0,1,team,R.poolb,19.0,S
1123,50.0,steam,4201.0,E9poolb,2.0,2,steam,R.poolb,19.0,S
1124,50.0,deck,4226.0,E9poolb,0.0,0,deck,R.poolb,20.0,D
1125,50.0,slice,6025.0,E9poolb,1.0,1,slice,R.poolb,20.0,D
1126,50.0,rat,4767.0,E9poolb,2.0,2,rice,R.poolb,20.0,D
1127,50.0,mail,4871.0,E9poolb,0.0,0,sail,R.poolb,21.0,S
1128,50.0,sail,4501.0,E9poolb,1.0,1,mail,R.poolb,21.0,S
1129,50.0,trail,5154.0,E9poolb,2.0,2,,R.poolb,21.0,S
1130,50.0,wail,5277.0,E9poolb,3.0,3,,R.poolb,21.0,S
1131,50.0,tail,5626.0,E9poolb,4.0,4,jail,R.poolb,21.0,S
1132,50.0,jail,3721.0,E9poolb,5.0,,,R.poolb,21.0,S
1133,50.0,beard,5389.0,E9poolb,0.0,0,beard,R.poolb,22.0,D
1134,50.0,hill,5446.0,E9poolb,1.0,1,hill,R.poolb,22.0,D
1135,50.0,dirt,4461.0,E9poolb,2.0,2,dirt,R.poolb,22.0,D
1136,50.0,card,4882.0,E9poolb,3.0,3,card,R.poolb,22.0,D
1137,50.0,line,4640.0,E9poolb,4.0,4,line,R.poolb,22.0,D
1138,50.0,mare,4641.0,E9poolb,0.0,0,mare,R.poolb,23.0,D
1139,50.0,bell,3816.0,E9poolb,1.0,1,bell,R.poolb,23.0,D
1140,50.0,brain,4706.0,E9poolb,2.0,2,brain,R.poolb,23.0,D
1141,50.0,beef,5039.0,E9poolb,3.0,3,beef,R.poolb,23.0,D
1142,50.0,pie,4353.0,E9poolb,0.0,0,paint,R.poolb,24.0,S
1143,50.0,fly,4022.0,E9poolb,1.0,1,fly,R.poolb,24.0,S
1144,50.0,tie,4982.0,E9poolb,2.0,2,tie,R.poolb,24.0,S
1145,50.0,sky,4576.0,E9poolb,3.0,3,sky,R.poolb,24.0,S
1146,50.0,eye,5633.0,E9poolb,4.0,4,eye,R.poolb,24.0,S
1147,50.0,band,4894.0,E9poolb,0.0,0,band,R.poolb,25.0,S
1148,50.0,land,5227.0,E9poolb,1.0,1,land,R.poolb,25.0,S
1149,50.0,stand,6098.0,E9poolb,2.0,2,stand,R.poolb,25.0,S
1150,50.0,hand,5358.0,E9poolb,3.0,3,hand,R.poolb,25.0,S
1151,50.0,bone,5109.0,E9poolb,0.0,0,,R.poolb,26.0,S
1152,50.0,phone,4313.0,E9poolb,1.0,1,phone,R.poolb,26.0,S
1153,50.0,stone,5326.0,E9poolb,2.0,2,stone,R.poolb,26.0,S
1154,50.0,shell,5336.0,E9poolb,0.0,0,shell,R.poolb,27.0,D
1155,50.0,tree,5139.0,E9poolb,1.0,1,tree,R.poolb,27.0,D
1156,50.0,bowl,5799.0,E9poolb,2.0,2,bowl,R.poolb,27.0,D
1157,50.0,broom,5686.0,E9poolb,3.0,3,broom,R.poolb,27.0,D
1158,50.0,test,5179.0,E9poolb,4.0,4,test,R.poolb,27.0,D
1159,50.0,ground,5221.0,E9poolb,5.0,5,,R.poolb,27.0,D
1160,29.0,farm,6158.0,E9poolb,0.0,0,farm,R.poolb,0.0,P
1161,29.0,arm,5504.0,E9poolb,1.0,1,arm,R.poolb,0.0,P
1162,29.0,hood,6512.0,E9poolb,0.0,0,hood,R.poolb,1.0,P
1163,29.0,wood,5835.0,E9poolb,1.0,1,wood,R.poolb,1.0,P
1164,29.0,bath,5752.0,E9poolb,0.0,0,bath,R.poolb,2.0,P
1165,29.0,dawn,5542.0,E9poolb,1.0,1,dawn,R.poolb,2.0,P
1166,29.0,earth,5347.0,E9poolb,0.0,0,earth,R.poolb,3.0,P
1167,29.0,peach,5982.0,E9poolb,1.0,1,peach,R.poolb,3.0,P
1168,29.0,cream,6349.0,E9poolb,0.0,0,cream,R.poolb,4.0,S
1169,29.0,team,6231.0,E9poolb,1.0,1,dream,R.poolb,4.0,S
1170,29.0,steam,7142.0,E9poolb,2.0,2,steam,R.poolb,4.0,S
1171,29.0,rice,6764.0,E9poolb,0.0,0,rice,R.poolb,5.0,D
1172,29.0,cat,4885.0,E9poolb,1.0,1,cat,R.poolb,5.0,D
1173,29.0,trash,7691.0,E9poolb,2.0,2,trash,R.poolb,5.0,D
1174,29.0,path,5716.0,E9poolb,0.0,0,path,R.poolb,6.0,D
1175,29.0,nest,6120.0,E9poolb,1.0,1,,R.poolb,6.0,D
1176,29.0,square,6907.0,E9poolb,2.0,2,,R.poolb,6.0,D
1177,29.0,wood,7014.0,E9poolb,3.0,3,beach,R.poolb,6.0,D
1178,29.0,beach,5645.0,E9poolb,4.0,,,R.poolb,6.0,D
1179,29.0,coin,5354.0,E9poolb,0.0,0,,R.poolb,7.0,D
1180,29.0,film,5828.0,E9poolb,1.0,1,coin,R.poolb,7.0,D
1181,29.0,leaf,5604.0,E9poolb,2.0,2,,R.poolb,7.0,D
1182,29.0,train,6716.0,E9poolb,3.0,3,,R.poolb,7.0,D
1183,29.0,map,5598.0,E9poolb,4.0,4,art,R.poolb,7.0,D
1184,29.0,art,5327.0,E9poolb,5.0,,,R.poolb,7.0,D
1185,29.0,bread,5756.0,E9poolb,0.0,0,bread,R.poolb,8.0,S
1186,29.0,head,7054.0,E9poolb,1.0,1,head,R.poolb,8.0,S
1187,29.0,thread,5547.0,E9poolb,2.0,2,thread,R.poolb,8.0,S
1188,29.0,bed,5662.0,E9poolb,3.0,3,red,R.poolb,8.0,S
1189,29.0,doll,5372.0,E9poolb,0.0,0,doll,R.poolb,9.0,S
1190,29.0,ball,6126.0,E9poolb,1.0,1,brawl,R.poolb,9.0,S
1191,29.0,shawl,7777.0,E9poolb,2.0,2,shawl,R.poolb,9.0,S
1192,29.0,hall,6376.0,E9poolb,3.0,3,wall,R.poolb,9.0,S
1193,29.0,brawl,6321.0,E9poolb,4.0,4,,R.poolb,9.0,S
1194,29.0,wall,7060.0,E9poolb,5.0,5,,R.poolb,9.0,S
1195,29.0,neck,4853.0,E9poolb,0.0,0,,R.poolb,10.0,D
1196,29.0,town,5845.0,E9poolb,1.0,1,hat,R.poolb,10.0,D
1197,29.0,hat,5547.0,E9poolb,2.0,2,street,R.poolb,10.0,D
1198,29.0,street,5470.0,E9poolb,3.0,,,R.poolb,10.0,D
1199,29.0,king,5113.0,E9poolb,0.0,0,king,R.poolb,11.0,S
1200,29.0,ring,6366.0,E9poolb,1.0,1,ring,R.poolb,11.0,S
1201,29.0,spring,6087.0,E9poolb,2.0,2,spring,R.poolb,11.0,S
1202,29.0,string,6604.0,E9poolb,3.0,3,string,R.poolb,11.0,S
1203,29.0,wing,5339.0,E9poolb,4.0,4,sing,R.poolb,11.0,S
1204,29.0,bone,5376.0,E9poolb,0.0,0,bone,R.poolb,12.0,S
1205,29.0,phone,6545.0,E9poolb,1.0,1,phone,R.poolb,12.0,S
1206,29.0,stone,6675.0,E9poolb,2.0,2,stone,R.poolb,12.0,S
1207,29.0,chest,5694.0,E9poolb,0.0,0,chest,R.poolb,13.0,D
1208,29.0,lane,5995.0,E9poolb,1.0,1,hair,R.poolb,13.0,D
1209,29.0,hair,6724.0,E9poolb,2.0,2,crown,R.poolb,13.0,D
1210,29.0,crown,6038.0,E9poolb,3.0,3,,R.poolb,13.0,D
1211,29.0,toy,4991.0,E9poolb,0.0,0,fun,R.poolb,14.0,D
1212,29.0,wreck,5433.0,E9poolb,1.0,1,,R.poolb,14.0,D
1213,29.0,frown,4880.0,E9poolb,2.0,2,frown,R.poolb,14.0,D
1214,29.0,spice,6049.0,E9poolb,0.0,0,spice,R.poolb,15.0,D
1215,29.0,heat,6919.0,E9poolb,1.0,1,heat,R.poolb,15.0,D
1216,29.0,shape,5426.0,E9poolb,2.0,2,,R.poolb,15.0,D
1217,29.0,pear,6369.0,E9poolb,3.0,3,,R.poolb,15.0,D
1218,29.0,guest,6506.0,E9poolb,4.0,4,paint,R.poolb,15.0,D
1219,29.0,jar,5703.0,E9poolb,0.0,0,bar,R.poolb,16.0,S
1220,29.0,bar,6604.0,E9poolb,1.0,1,,R.poolb,16.0,S
1221,29.0,car,6467.0,E9poolb,2.0,2,,R.poolb,16.0,S
1222,29.0,scar,6440.0,E9poolb,3.0,3,car,R.poolb,16.0,S
1223,29.0,star,6494.0,E9poolb,4.0,4,star,R.poolb,16.0,S
1224,29.0,ant,5171.0,E9poolb,0.0,0,,R.poolb,17.0,D
1225,29.0,air,6413.0,E9poolb,1.0,1,,R.poolb,17.0,D
1226,29.0,ink,8229.0,E9poolb,2.0,2,art,R.poolb,17.0,D
1227,29.0,cloud,6194.0,E9poolb,3.0,3,course,R.poolb,17.0,D
1228,29.0,seat,5514.0,E9poolb,4.0,4,,R.poolb,17.0,D
1229,29.0,breath,4958.0,E9poolb,5.0,5,,R.poolb,17.0,D
1230,29.0,boot,5000.0,E9poolb,0.0,0,boot,R.poolb,18.0,S
1231,29.0,suit,6818.0,E9poolb,1.0,1,suit,R.poolb,18.0,S
1232,29.0,flute,6537.0,E9poolb,2.0,2,,R.poolb,18.0,S
1233,29.0,loot,6810.0,E9poolb,3.0,3,,R.poolb,18.0,S
1234,29.0,root,6034.0,E9poolb,4.0,4,root,R.poolb,18.0,S
1235,29.0,brute,5567.0,E9poolb,5.0,5,,R.poolb,18.0,S
1236,29.0,deer,5319.0,E9poolb,0.0,0,deer,R.poolb,19.0,S
1237,29.0,sphere,5979.0,E9poolb,1.0,1,sphere,R.poolb,19.0,S
1238,29.0,ear,5653.0,E9poolb,2.0,2,ear,R.poolb,19.0,S
1239,29.0,tear,6043.0,E9poolb,3.0,3,tear,R.poolb,19.0,S
1240,29.0,mail,4691.0,E9poolb,0.0,0,mail,R.poolb,20.0,S
1241,29.0,sail,6473.0,E9poolb,1.0,1,pail,R.poolb,20.0,S
1242,29.0,trail,5286.0,E9poolb,2.0,2,sail,R.poolb,20.0,S
1243,29.0,wail,5507.0,E9poolb,3.0,3,trail,R.poolb,20.0,S
1244,29.0,tail,6063.0,E9poolb,4.0,4,fail,R.poolb,20.0,S
1245,29.0,jail,6046.0,E9poolb,5.0,5,,R.poolb,20.0,S
1246,29.0,beard,5270.0,E9poolb,0.0,0,,R.poolb,21.0,D
1247,29.0,hill,6139.0,E9poolb,1.0,1,hill,R.poolb,21.0,D
1248,29.0,dirt,6127.0,E9poolb,2.0,2,dirt,R.poolb,21.0,D
1249,29.0,card,5321.0,E9poolb,3.0,3,card,R.poolb,21.0,D
1250,29.0,line,5550.0,E9poolb,4.0,4,line,R.poolb,21.0,D
1251,29.0,blouse,5131.0,E9poolb,0.0,0,blouse,R.poolb,22.0,S
1252,29.0,house,6086.0,E9poolb,1.0,1,house,R.poolb,22.0,S
1253,29.0,mouse,6050.0,E9poolb,2.0,2,mouse,R.poolb,22.0,S
1254,29.0,deck,5502.0,E9poolb,0.0,0,,R.poolb,23.0,D
1255,29.0,slice,7226.0,E9poolb,1.0,1,slice,R.poolb,23.0,D
1256,29.0,rat,5624.0,E9poolb,2.0,2,rat,R.poolb,23.0,D
1257,29.0,pie,5417.0,E9poolb,0.0,0,pie,R.poolb,24.0,S
1258,29.0,fly,5194.0,E9poolb,1.0,1,fly,R.poolb,24.0,S
1259,29.0,tie,5722.0,E9poolb,2.0,2,tie,R.poolb,24.0,S
1260,29.0,sky,6310.0,E9poolb,3.0,3,sky,R.poolb,24.0,S
1261,29.0,eye,7553.0,E9poolb,4.0,4,,R.poolb,24.0,S
1262,29.0,shell,4611.0,E9poolb,0.0,0,shell,R.poolb,25.0,D
1263,29.0,tree,5923.0,E9poolb,1.0,1,,R.poolb,25.0,D
1264,29.0,bowl,5720.0,E9poolb,2.0,2,,R.poolb,25.0,D
1265,29.0,broom,7338.0,E9poolb,3.0,3,,R.poolb,25.0,D
1266,29.0,test,5924.0,E9poolb,4.0,4,bat,R.poolb,25.0,D
1267,29.0,ground,6704.0,E9poolb,5.0,5,,R.poolb,25.0,D
1268,29.0,band,4802.0,E9poolb,0.0,0,band,R.poolb,26.0,S
1269,29.0,land,5723.0,E9poolb,1.0,1,land,R.poolb,26.0,S
1270,29.0,stand,6702.0,E9poolb,2.0,2,stand,R.poolb,26.0,S
1271,29.0,hand,5754.0,E9poolb,3.0,3,hand,R.poolb,26.0,S
1272,29.0,mare,5348.0,E9poolb,0.0,0,mare,R.poolb,27.0,D
1273,29.0,bell,4999.0,E9poolb,1.0,1,bell,R.poolb,27.0,D
1274,29.0,brain,5911.0,E9poolb,2.0,2,,R.poolb,27.0,D
1275,29.0,beef,6476.0,E9poolb,3.0,3,beef,R.poolb,27.0,D
1276,35.0,bath,312.0,E9poolb,0.0,0,bath,R.poolb,0.0,P
1277,35.0,dawn,273.0,E9poolb,1.0,1,dawn,R.poolb,0.0,P
1278,35.0,hood,326.0,E9poolb,0.0,0,hood,R.poolb,1.0,P
1279,35.0,wood,382.0,E9poolb,1.0,1,wood,R.poolb,1.0,P
1280,35.0,farm,302.0,E9poolb,0.0,0,farm,R.poolb,2.0,P
1281,35.0,arm,272.0,E9poolb,1.0,1,arm,R.poolb,2.0,P
1282,35.0,earth,445.0,E9poolb,0.0,0,earth,R.poolb,3.0,P
1283,35.0,peach,265.0,E9poolb,1.0,1,peach,R.poolb,3.0,P
1284,35.0,bread,3897.0,E9poolb,0.0,0,bread,R.poolb,4.0,S
1285,35.0,head,3502.0,E9poolb,1.0,1,head,R.poolb,4.0,S
1286,35.0,thread,3686.0,E9poolb,2.0,2,thread,R.poolb,4.0,S
1287,35.0,bed,4116.0,E9poolb,3.0,3,bed,R.poolb,4.0,S
1288,35.0,doll,3496.0,E9poolb,0.0,0,doll,R.poolb,5.0,S
1289,35.0,ball,3807.0,E9poolb,1.0,1,ball,R.poolb,5.0,S
1290,35.0,shawl,4185.0,E9poolb,2.0,2,hall,R.poolb,5.0,S
1291,35.0,hall,4435.0,E9poolb,3.0,3,shawl,R.poolb,5.0,S
1292,35.0,brawl,4131.0,E9poolb,4.0,4,brawl,R.poolb,5.0,S
1293,35.0,wall,3846.0,E9poolb,5.0,,,R.poolb,5.0,S
1294,35.0,neck,3777.0,E9poolb,0.0,0,town,R.poolb,6.0,D
1295,35.0,town,3507.0,E9poolb,1.0,1,hat,R.poolb,6.0,D
1296,35.0,hat,3443.0,E9poolb,2.0,2,street,R.poolb,6.0,D
1297,35.0,street,3899.0,E9poolb,3.0,,,R.poolb,6.0,D
1298,35.0,coin,3695.0,E9poolb,0.0,0,coin,R.poolb,7.0,D
1299,35.0,film,3741.0,E9poolb,1.0,1,film,R.poolb,7.0,D
1300,35.0,leaf,4010.0,E9poolb,2.0,2,leaf,R.poolb,7.0,D
1301,35.0,train,3988.0,E9poolb,3.0,3,train,R.poolb,7.0,D
1302,35.0,map,4486.0,E9poolb,4.0,4,map,R.poolb,7.0,D
1303,35.0,art,4389.0,E9poolb,5.0,5,art,R.poolb,7.0,D
1304,35.0,path,3928.0,E9poolb,0.0,0,path,R.poolb,8.0,D
1305,35.0,nest,4205.0,E9poolb,1.0,1,nest,R.poolb,8.0,D
1306,35.0,square,3798.0,E9poolb,2.0,2,square,R.poolb,8.0,D
1307,35.0,wood,4032.0,E9poolb,3.0,3,wood,R.poolb,8.0,D
1308,35.0,beach,4937.0,E9poolb,4.0,4,beach,R.poolb,8.0,D
1309,35.0,rice,3860.0,E9poolb,0.0,0,rice,R.poolb,9.0,D
1310,35.0,cat,3291.0,E9poolb,1.0,1,cat,R.poolb,9.0,D
1311,35.0,trash,3659.0,E9poolb,2.0,2,trash,R.poolb,9.0,D
1312,35.0,king,3398.0,E9poolb,0.0,0,king,R.poolb,10.0,S
1313,35.0,ring,3574.0,E9poolb,1.0,1,ring,R.poolb,10.0,S
1314,35.0,spring,3579.0,E9poolb,2.0,2,,R.poolb,10.0,S
1315,35.0,string,3943.0,E9poolb,3.0,3,string,R.poolb,10.0,S
1316,35.0,wing,3915.0,E9poolb,4.0,4,wing,R.poolb,10.0,S
1317,35.0,cream,4034.0,E9poolb,0.0,0,cream,R.poolb,11.0,S
1318,35.0,team,3539.0,E9poolb,1.0,1,team,R.poolb,11.0,S
1319,35.0,steam,4225.0,E9poolb,2.0,2,steam,R.poolb,11.0,S
1320,35.0,bone,3547.0,E9poolb,0.0,0,bone,R.poolb,12.0,S
1321,35.0,phone,3760.0,E9poolb,1.0,1,phone,R.poolb,12.0,S
1322,35.0,stone,4476.0,E9poolb,2.0,2,stone,R.poolb,12.0,S
1323,35.0,deer,3678.0,E9poolb,0.0,0,deer,R.poolb,13.0,S
1324,35.0,sphere,3501.0,E9poolb,1.0,1,sphere,R.poolb,13.0,S
1325,35.0,ear,5140.0,E9poolb,2.0,2,ear,R.poolb,13.0,S
1326,35.0,tear,4367.0,E9poolb,3.0,3,tear,R.poolb,13.0,S
1327,35.0,jar,3496.0,E9poolb,0.0,0,,R.poolb,14.0,S
1328,35.0,bar,3495.0,E9poolb,1.0,1,bar,R.poolb,14.0,S
1329,35.0,car,3542.0,E9poolb,2.0,2,car,R.poolb,14.0,S
1330,35.0,scar,4387.0,E9poolb,3.0,3,star,R.poolb,14.0,S
1331,35.0,star,3653.0,E9poolb,4.0,,,R.poolb,14.0,S
1332,35.0,chest,3647.0,E9poolb,0.0,0,chest,R.poolb,15.0,D
1333,35.0,lane,3927.0,E9poolb,1.0,1,path,R.poolb,15.0,D
1334,35.0,hair,3981.0,E9poolb,2.0,2,hair,R.poolb,15.0,D
1335,35.0,crown,4087.0,E9poolb,3.0,3,crown,R.poolb,15.0,D
1336,35.0,boot,3461.0,E9poolb,0.0,0,suit,R.poolb,16.0,S
1337,35.0,suit,3989.0,E9poolb,1.0,1,boot,R.poolb,16.0,S
1338,35.0,flute,3943.0,E9poolb,2.0,2,flute,R.poolb,16.0,S
1339,35.0,loot,4348.0,E9poolb,3.0,3,loot,R.poolb,16.0,S
1340,35.0,root,3663.0,E9poolb,4.0,4,root,R.poolb,16.0,S
1341,35.0,brute,3848.0,E9poolb,5.0,5,brute,R.poolb,16.0,S
1342,35.0,ant,3568.0,E9poolb,0.0,0,ant,R.poolb,17.0,D
1343,35.0,air,3612.0,E9poolb,1.0,1,air,R.poolb,17.0,D
1344,35.0,ink,3886.0,E9poolb,2.0,2,,R.poolb,17.0,D
1345,35.0,cloud,4124.0,E9poolb,3.0,3,seat,R.poolb,17.0,D
1346,35.0,seat,3626.0,E9poolb,4.0,4,breath,R.poolb,17.0,D
1347,35.0,breath,5267.0,E9poolb,5.0,,,R.poolb,17.0,D
1348,35.0,spice,3804.0,E9poolb,0.0,0,spice,R.poolb,18.0,D
1349,35.0,heat,3535.0,E9poolb,1.0,1,heat,R.poolb,18.0,D
1350,35.0,shape,4388.0,E9poolb,2.0,2,shape,R.poolb,18.0,D
1351,35.0,pear,3534.0,E9poolb,3.0,3,pear,R.poolb,18.0,D
1352,35.0,guest,5090.0,E9poolb,4.0,4,guest,R.poolb,18.0,D
1353,35.0,toy,3547.0,E9poolb,0.0,0,toy,R.poolb,19.0,D
1354,35.0,wreck,3696.0,E9poolb,1.0,1,wreck,R.poolb,19.0,D
1355,35.0,frown,4167.0,E9poolb,2.0,2,frown,R.poolb,19.0,D
1356,35.0,mail,3435.0,E9poolb,0.0,0,mail,R.poolb,20.0,S
1357,35.0,sail,3437.0,E9poolb,1.0,1,sail,R.poolb,20.0,S
1358,35.0,trail,3334.0,E9poolb,2.0,2,wail,R.poolb,20.0,S
1359,35.0,wail,4923.0,E9poolb,3.0,3,trail,R.poolb,20.0,S
1360,35.0,tail,3887.0,E9poolb,4.0,4,pail,R.poolb,20.0,S
1361,35.0,jail,4494.0,E9poolb,5.0,,,R.poolb,20.0,S
1362,35.0,deck,3528.0,E9poolb,0.0,0,deck,R.poolb,21.0,D
1363,35.0,slice,3599.0,E9poolb,1.0,1,slice,R.poolb,21.0,D
1364,35.0,rat,4329.0,E9poolb,2.0,2,rat,R.poolb,21.0,D
1365,35.0,beard,3509.0,E9poolb,0.0,0,beard,R.poolb,22.0,D
1366,35.0,hill,3595.0,E9poolb,1.0,1,dirt,R.poolb,22.0,D
1367,35.0,dirt,3790.0,E9poolb,2.0,2,hill,R.poolb,22.0,D
1368,35.0,card,4185.0,E9poolb,3.0,3,,R.poolb,22.0,D
1369,35.0,line,5218.0,E9poolb,4.0,4,dressed,R.poolb,22.0,D
1370,35.0,blouse,3213.0,E9poolb,0.0,0,blouse,R.poolb,23.0,S
1371,35.0,house,3880.0,E9poolb,1.0,1,house,R.poolb,23.0,S
1372,35.0,mouse,3999.0,E9poolb,2.0,2,mouse,R.poolb,23.0,S
1373,35.0,mare,3313.0,E9poolb,0.0,0,mare,R.poolb,24.0,D
1374,35.0,bell,3343.0,E9poolb,1.0,1,bell,R.poolb,24.0,D
1375,35.0,brain,4180.0,E9poolb,2.0,2,brain,R.poolb,24.0,D
1376,35.0,beef,4487.0,E9poolb,3.0,3,beef,R.poolb,24.0,D
1377,35.0,shell,3459.0,E9poolb,0.0,0,mare,R.poolb,25.0,D
1378,35.0,tree,4004.0,E9poolb,1.0,1,tree,R.poolb,25.0,D
1379,35.0,bowl,3853.0,E9poolb,2.0,2,shell,R.poolb,25.0,D
1380,35.0,broom,4774.0,E9poolb,3.0,3,ground,R.poolb,25.0,D
1381,35.0,test,4441.0,E9poolb,4.0,4,,R.poolb,25.0,D
1382,35.0,ground,4392.0,E9poolb,5.0,,,R.poolb,25.0,D
1383,35.0,band,3338.0,E9poolb,0.0,0,band,R.poolb,26.0,S
1384,35.0,land,3799.0,E9poolb,1.0,1,land,R.poolb,26.0,S
1385,35.0,stand,4504.0,E9poolb,2.0,2,sand,R.poolb,26.0,S
1386,35.0,hand,4598.0,E9poolb,3.0,3,hand,R.poolb,26.0,S
1387,35.0,pie,3237.0,E9poolb,0.0,0,pie,R.poolb,27.0,S
1388,35.0,fly,3270.0,E9poolb,1.0,1,fly,R.poolb,27.0,S
1389,35.0,tie,3374.0,E9poolb,2.0,2,tie,R.poolb,27.0,S
1390,35.0,sky,4665.0,E9poolb,3.0,3,sky,R.poolb,27.0,S
1391,35.0,eye,5208.0,E9poolb,4.0,4,eye,R.poolb,27.0,S
1392,46.0,earth,6981.0,E9poolb,0.0,0,earth,R.poolb,0.0,P
1393,46.0,peach,5980.0,E9poolb,1.0,1,peach,R.poolb,0.0,P
1394,46.0,hood,7697.0,E9poolb,0.0,0,hood,R.poolb,1.0,P
1395,46.0,wood,5962.0,E9poolb,1.0,1,wood,R.poolb,1.0,P
1396,46.0,farm,5711.0,E9poolb,0.0,0,wood,R.poolb,2.0,P
1397,46.0,arm,7345.0,E9poolb,1.0,1,arm,R.poolb,2.0,P
1398,46.0,bath,6566.0,E9poolb,0.0,0,bath,R.poolb,3.0,P
1399,46.0,dawn,6022.0,E9poolb,1.0,1,dawn,R.poolb,3.0,P
1400,46.0,path,5453.0,E9poolb,0.0,0,path,R.poolb,4.0,D
1401,46.0,nest,6179.0,E9poolb,1.0,1,nest,R.poolb,4.0,D
1402,46.0,square,5787.0,E9poolb,2.0,2,wood,R.poolb,4.0,D
1403,46.0,wood,6411.0,E9poolb,3.0,3,,R.poolb,4.0,D
1404,46.0,beach,5479.0,E9poolb,4.0,4,beach,R.poolb,4.0,D
1405,46.0,rice,5308.0,E9poolb,0.0,0,rice,R.poolb,5.0,D
1406,46.0,cat,4801.0,E9poolb,1.0,1,cat,R.poolb,5.0,D
1407,46.0,trash,6266.0,E9poolb,2.0,2,trash,R.poolb,5.0,D
1408,46.0,neck,4804.0,E9poolb,0.0,0,neck,R.poolb,6.0,D
1409,46.0,town,4654.0,E9poolb,1.0,1,town,R.poolb,6.0,D
1410,46.0,hat,5389.0,E9poolb,2.0,2,hat,R.poolb,6.0,D
1411,46.0,street,5460.0,E9poolb,3.0,3,street,R.poolb,6.0,D
1412,46.0,bread,7551.0,E9poolb,0.0,0,bread,R.poolb,7.0,S
1413,46.0,head,5727.0,E9poolb,1.0,1,head,R.poolb,7.0,S
1414,46.0,thread,5217.0,E9poolb,2.0,2,thread,R.poolb,7.0,S
1415,46.0,bed,5527.0,E9poolb,3.0,3,bed,R.poolb,7.0,S
1416,46.0,doll,5276.0,E9poolb,0.0,0,doll,R.poolb,8.0,S
1417,46.0,ball,5791.0,E9poolb,1.0,1,ball,R.poolb,8.0,S
1418,46.0,shawl,5558.0,E9poolb,2.0,2,,R.poolb,8.0,S
1419,46.0,hall,5199.0,E9poolb,3.0,3,,R.poolb,8.0,S
1420,46.0,brawl,5705.0,E9poolb,4.0,4,brawl,R.poolb,8.0,S
1421,46.0,wall,4780.0,E9poolb,5.0,5,,R.poolb,8.0,S
1422,46.0,coin,6248.0,E9poolb,0.0,0,coin,R.poolb,9.0,D
1423,46.0,film,5294.0,E9poolb,1.0,1,film,R.poolb,9.0,D
1424,46.0,leaf,5049.0,E9poolb,2.0,2,leaf,R.poolb,9.0,D
1425,46.0,train,5263.0,E9poolb,3.0,3,train,R.poolb,9.0,D
1426,46.0,map,4893.0,E9poolb,4.0,4,map,R.poolb,9.0,D
1427,46.0,art,4559.0,E9poolb,5.0,5,art,R.poolb,9.0,D
1428,46.0,cream,5342.0,E9poolb,0.0,0,cream,R.poolb,10.0,S
1429,46.0,team,5598.0,E9poolb,1.0,1,team,R.poolb,10.0,S
1430,46.0,steam,5792.0,E9poolb,2.0,2,steam,R.poolb,10.0,S
1431,46.0,king,5695.0,E9poolb,0.0,0,king,R.poolb,11.0,S
1432,46.0,ring,5810.0,E9poolb,1.0,1,ring,R.poolb,11.0,S
1433,46.0,spring,5186.0,E9poolb,2.0,2,spring,R.poolb,11.0,S
1434,46.0,string,5827.0,E9poolb,3.0,3,string,R.poolb,11.0,S
1435,46.0,wing,7305.0,E9poolb,4.0,4,wing,R.poolb,11.0,S
1436,46.0,bone,4905.0,E9poolb,0.0,0,bone,R.poolb,12.0,S
1437,46.0,phone,4869.0,E9poolb,1.0,1,phone,R.poolb,12.0,S
1438,46.0,stone,7339.0,E9poolb,2.0,2,stone,R.poolb,12.0,S
1439,46.0,jar,4935.0,E9poolb,0.0,0,jar,R.poolb,13.0,S
1440,46.0,bar,4923.0,E9poolb,1.0,1,bar,R.poolb,13.0,S
1441,46.0,car,4750.0,E9poolb,2.0,2,car,R.poolb,13.0,S
1442,46.0,scar,6231.0,E9poolb,3.0,3,scar,R.poolb,13.0,S
1443,46.0,star,4740.0,E9poolb,4.0,4,star,R.poolb,13.0,S
1444,46.0,deer,5571.0,E9poolb,0.0,0,deer,R.poolb,14.0,S
1445,46.0,sphere,5108.0,E9poolb,1.0,1,sphere,R.poolb,14.0,S
1446,46.0,ear,5760.0,E9poolb,2.0,2,ear,R.poolb,14.0,S
1447,46.0,tear,6225.0,E9poolb,3.0,3,tear,R.poolb,14.0,S
1448,46.0,chest,5473.0,E9poolb,0.0,0,,R.poolb,15.0,D
1449,46.0,lane,7440.0,E9poolb,1.0,1,,R.poolb,15.0,D
1450,46.0,hair,5915.0,E9poolb,2.0,2,,R.poolb,15.0,D
1451,46.0,crown,7135.0,E9poolb,3.0,3,hair,R.poolb,15.0,D
1452,46.0,spice,5620.0,E9poolb,0.0,0,spice,R.poolb,16.0,D
1453,46.0,heat,6389.0,E9poolb,1.0,1,,R.poolb,16.0,D
1454,46.0,shape,5508.0,E9poolb,2.0,2,,R.poolb,16.0,D
1455,46.0,pear,7014.0,E9poolb,3.0,3,pear,R.poolb,16.0,D
1456,46.0,guest,7556.0,E9poolb,4.0,,,R.poolb,16.0,D
1457,46.0,ant,5369.0,E9poolb,0.0,0,ant,R.poolb,17.0,D
1458,46.0,air,5876.0,E9poolb,1.0,1,air,R.poolb,17.0,D
1459,46.0,ink,5536.0,E9poolb,2.0,2,,R.poolb,17.0,D
1460,46.0,cloud,5763.0,E9poolb,3.0,3,ink,R.poolb,17.0,D
1461,46.0,seat,6082.0,E9poolb,4.0,4,cloud,R.poolb,17.0,D
1462,46.0,breath,5767.0,E9poolb,5.0,5,breath,R.poolb,17.0,D
1463,46.0,toy,4964.0,E9poolb,0.0,0,toy,R.poolb,18.0,D
1464,46.0,wreck,5167.0,E9poolb,1.0,1,wreck,R.poolb,18.0,D
1465,46.0,frown,5592.0,E9poolb,2.0,2,frown,R.poolb,18.0,D
1466,46.0,boot,5964.0,E9poolb,0.0,0,boot,R.poolb,19.0,S
1467,46.0,suit,5068.0,E9poolb,1.0,1,suit,R.poolb,19.0,S
1468,46.0,flute,6070.0,E9poolb,2.0,2,flute,R.poolb,19.0,S
1469,46.0,loot,5990.0,E9poolb,3.0,3,loot,R.poolb,19.0,S
1470,46.0,root,7102.0,E9poolb,4.0,4,root,R.poolb,19.0,S
1471,46.0,brute,5711.0,E9poolb,5.0,5,brute,R.poolb,19.0,S
1472,46.0,mare,4669.0,E9poolb,0.0,0,mare,R.poolb,20.0,D
1473,46.0,bell,5322.0,E9poolb,1.0,1,bell,R.poolb,20.0,D
1474,46.0,brain,4517.0,E9poolb,2.0,2,brain,R.poolb,20.0,D
1475,46.0,beef,5303.0,E9poolb,3.0,3,beef,R.poolb,20.0,D
1476,46.0,deck,5135.0,E9poolb,0.0,0,deck,R.poolb,21.0,D
1477,46.0,slice,5898.0,E9poolb,1.0,1,slice,R.poolb,21.0,D
1478,46.0,rat,4842.0,E9poolb,2.0,2,rat,R.poolb,21.0,D
1479,46.0,pie,5346.0,E9poolb,0.0,0,pie,R.poolb,22.0,S
1480,46.0,fly,6300.0,E9poolb,1.0,1,fly,R.poolb,22.0,S
1481,46.0,tie,5045.0,E9poolb,2.0,2,tie,R.poolb,22.0,S
1482,46.0,sky,5916.0,E9poolb,3.0,3,sky,R.poolb,22.0,S
1483,46.0,eye,6952.0,E9poolb,4.0,4,eye,R.poolb,22.0,S
1484,46.0,mail,5158.0,E9poolb,0.0,0,mail,R.poolb,23.0,S
1485,46.0,sail,4919.0,E9poolb,1.0,1,sail,R.poolb,23.0,S
1486,46.0,trail,5140.0,E9poolb,2.0,2,trail,R.poolb,23.0,S
1487,46.0,wail,5878.0,E9poolb,3.0,3,wail,R.poolb,23.0,S
1488,46.0,tail,5610.0,E9poolb,4.0,4,jail,R.poolb,23.0,S
1489,46.0,jail,5576.0,E9poolb,5.0,,,R.poolb,23.0,S
1490,46.0,band,4655.0,E9poolb,0.0,0,band,R.poolb,24.0,S
1491,46.0,land,6099.0,E9poolb,1.0,1,land,R.poolb,24.0,S
1492,46.0,stand,5352.0,E9poolb,2.0,2,stand,R.poolb,24.0,S
1493,46.0,hand,6386.0,E9poolb,3.0,3,hand,R.poolb,24.0,S
1494,46.0,shell,4997.0,E9poolb,0.0,0,shell,R.poolb,25.0,D
1495,46.0,tree,4500.0,E9poolb,1.0,1,tree,R.poolb,25.0,D
1496,46.0,bowl,4959.0,E9poolb,2.0,2,bowl,R.poolb,25.0,D
1497,46.0,broom,6571.0,E9poolb,3.0,3,broom,R.poolb,25.0,D
1498,46.0,test,6139.0,E9poolb,4.0,4,test,R.poolb,25.0,D
1499,46.0,ground,5723.0,E9poolb,5.0,5,ground,R.poolb,25.0,D
1500,46.0,beard,4746.0,E9poolb,0.0,0,beard,R.poolb,26.0,D
1501,46.0,hill,4861.0,E9poolb,1.0,1,hill,R.poolb,26.0,D
1502,46.0,dirt,6236.0,E9poolb,2.0,2,dirt,R.poolb,26.0,D
1503,46.0,card,6047.0,E9poolb,3.0,3,card,R.poolb,26.0,D
1504,46.0,line,5190.0,E9poolb,4.0,,,R.poolb,26.0,D
1505,46.0,blouse,5648.0,E9poolb,0.0,0,blouse,R.poolb,27.0,S
1506,46.0,house,4742.0,E9poolb,1.0,1,house,R.poolb,27.0,S
1507,46.0,mouse,5664.0,E9poolb,2.0,2,mouse,R.poolb,27.0,S
1508,21.0,farm,6292.0,E9poolb,0.0,0,farm,R.poolb,0.0,P
1509,21.0,arm,8902.0,E9poolb,1.0,1,arm,R.poolb,0.0,P
1510,21.0,bath,5648.0,E9poolb,0.0,0,bath,R.poolb,1.0,P
1511,21.0,dawn,5630.0,E9poolb,1.0,1,dawn,R.poolb,1.0,P
1512,21.0,earth,4693.0,E9poolb,0.0,0,earth,R.poolb,2.0,P
1513,21.0,peach,5245.0,E9poolb,1.0,1,peach,R.poolb,2.0,P
1514,21.0,hood,4820.0,E9poolb,0.0,0,hood,R.poolb,3.0,P
1515,21.0,wood,4412.0,E9poolb,1.0,1,wood,R.poolb,3.0,P
1516,21.0,bread,5622.0,E9poolb,0.0,0,bread,R.poolb,4.0,S
1517,21.0,head,5279.0,E9poolb,1.0,1,head,R.poolb,4.0,S
1518,21.0,thread,5213.0,E9poolb,2.0,2,thread,R.poolb,4.0,S
1519,21.0,bed,5573.0,E9poolb,3.0,3,bed,R.poolb,4.0,S
1520,21.0,blouse,5149.0,E9poolb,0.0,0,blouse,R.poolb,5.0,S
1521,21.0,house,4632.0,E9poolb,1.0,1,house,R.poolb,5.0,S
1522,21.0,mouse,6120.0,E9poolb,2.0,2,mouse,R.poolb,5.0,S
1523,21.0,king,4865.0,E9poolb,0.0,0,ring,R.poolb,6.0,S
1524,21.0,ring,4959.0,E9poolb,1.0,1,,R.poolb,6.0,S
1525,21.0,spring,5002.0,E9poolb,2.0,2,spring,R.poolb,6.0,S
1526,21.0,string,5122.0,E9poolb,3.0,3,string,R.poolb,6.0,S
1527,21.0,wing,6574.0,E9poolb,4.0,4,,R.poolb,6.0,S
1528,21.0,coin,9906.0,E9poolb,0.0,0,,R.poolb,7.0,D
1529,21.0,film,5073.0,E9poolb,1.0,1,,R.poolb,7.0,D
1530,21.0,leaf,5520.0,E9poolb,2.0,2,,R.poolb,7.0,D
1531,21.0,train,5284.0,E9poolb,3.0,3,map,R.poolb,7.0,D
1532,21.0,map,5529.0,E9poolb,4.0,4,art,R.poolb,7.0,D
1533,21.0,art,6332.0,E9poolb,5.0,5,,R.poolb,7.0,D
1534,21.0,neck,4657.0,E9poolb,0.0,0,neck,R.poolb,8.0,D
1535,21.0,town,4863.0,E9poolb,1.0,1,town,R.poolb,8.0,D
1536,21.0,hat,5574.0,E9poolb,2.0,2,hat,R.poolb,8.0,D
1537,21.0,street,5447.0,E9poolb,3.0,3,street,R.poolb,8.0,D
1538,21.0,doll,4689.0,E9poolb,0.0,0,doll,R.poolb,9.0,S
1539,21.0,ball,5631.0,E9poolb,1.0,1,ball,R.poolb,9.0,S
1540,21.0,shawl,4703.0,E9poolb,2.0,2,sprawl,R.poolb,9.0,S
1541,21.0,hall,6092.0,E9poolb,3.0,3,,R.poolb,9.0,S
1542,21.0,brawl,5657.0,E9poolb,4.0,4,,R.poolb,9.0,S
1543,21.0,wall,5798.0,E9poolb,5.0,5,,R.poolb,9.0,S
1544,21.0,path,4490.0,E9poolb,0.0,0,,R.poolb,10.0,D
1545,21.0,nest,4985.0,E9poolb,1.0,1,,R.poolb,10.0,D
1546,21.0,square,5426.0,E9poolb,2.0,2,square,R.poolb,10.0,D
1547,21.0,wood,6010.0,E9poolb,3.0,3,wood,R.poolb,10.0,D
1548,21.0,beach,4690.0,E9poolb,4.0,4,beach,R.poolb,10.0,D
1549,21.0,rice,4766.0,E9poolb,0.0,0,rice,R.poolb,11.0,D
1550,21.0,cat,4904.0,E9poolb,1.0,1,cat,R.poolb,11.0,D
1551,21.0,trash,6653.0,E9poolb,2.0,2,trash,R.poolb,11.0,D
1552,21.0,toy,4397.0,E9poolb,0.0,0,toy,R.poolb,12.0,D
1553,21.0,wreck,4919.0,E9poolb,1.0,1,wreck,R.poolb,12.0,D
1554,21.0,frown,5580.0,E9poolb,2.0,2,,R.poolb,12.0,D
1555,21.0,bone,4438.0,E9poolb,0.0,0,bone,R.poolb,13.0,S
1556,21.0,phone,4599.0,E9poolb,1.0,1,phone,R.poolb,13.0,S
1557,21.0,stone,4743.0,E9poolb,2.0,2,stone,R.poolb,13.0,S
1558,21.0,ant,4790.0,E9poolb,0.0,0,ant,R.poolb,14.0,D
1559,21.0,air,4271.0,E9poolb,1.0,1,air,R.poolb,14.0,D
1560,21.0,ink,4398.0,E9poolb,2.0,2,ink,R.poolb,14.0,D
1561,21.0,cloud,6263.0,E9poolb,3.0,3,,R.poolb,14.0,D
1562,21.0,seat,4964.0,E9poolb,4.0,4,,R.poolb,14.0,D
1563,21.0,breath,4358.0,E9poolb,5.0,5,,R.poolb,14.0,D
1564,21.0,spice,4141.0,E9poolb,0.0,0,,R.poolb,15.0,D
1565,21.0,heat,4432.0,E9poolb,1.0,1,,R.poolb,15.0,D
1566,21.0,shape,5873.0,E9poolb,2.0,2,pear,R.poolb,15.0,D
1567,21.0,pear,5975.0,E9poolb,3.0,3,guest,R.poolb,15.0,D
1568,21.0,guest,4696.0,E9poolb,4.0,4,,R.poolb,15.0,D
1569,21.0,jar,4486.0,E9poolb,0.0,0,jar,R.poolb,16.0,S
1570,21.0,bar,4740.0,E9poolb,1.0,1,bar,R.poolb,16.0,S
1571,21.0,car,5056.0,E9poolb,2.0,2,,R.poolb,16.0,S
1572,21.0,scar,5782.0,E9poolb,3.0,3,,R.poolb,16.0,S
1573,21.0,star,4775.0,E9poolb,4.0,4,star,R.poolb,16.0,S
1574,21.0,boot,4667.0,E9poolb,0.0,0,,R.poolb,17.0,S
1575,21.0,suit,4521.0,E9poolb,1.0,1,suit,R.poolb,17.0,S
1576,21.0,flute,4887.0,E9poolb,2.0,2,flute,R.poolb,17.0,S
1577,21.0,loot,4539.0,E9poolb,3.0,3,,R.poolb,17.0,S
1578,21.0,root,5887.0,E9poolb,4.0,4,brute,R.poolb,17.0,S
1579,21.0,brute,5652.0,E9poolb,5.0,5,,R.poolb,17.0,S
1580,21.0,chest,5031.0,E9poolb,0.0,0,,R.poolb,18.0,D
1581,21.0,lane,4214.0,E9poolb,1.0,1,,R.poolb,18.0,D
1582,21.0,hair,6631.0,E9poolb,2.0,2,hair,R.poolb,18.0,D
1583,21.0,crown,4503.0,E9poolb,3.0,3,crown,R.poolb,18.0,D
1584,21.0,deer,4548.0,E9poolb,0.0,0,deer,R.poolb,19.0,S
1585,21.0,sphere,4568.0,E9poolb,1.0,1,sphere,R.poolb,19.0,S
1586,21.0,ear,4633.0,E9poolb,2.0,2,,R.poolb,19.0,S
1587,21.0,tear,5562.0,E9poolb,3.0,3,tear,R.poolb,19.0,S
1588,21.0,cream,4508.0,E9poolb,0.0,0,cream,R.poolb,20.0,S
1589,21.0,team,4379.0,E9poolb,1.0,1,team,R.poolb,20.0,S
1590,21.0,steam,4573.0,E9poolb,2.0,2,steam,R.poolb,20.0,S
1591,21.0,mare,4006.0,E9poolb,0.0,0,mare,R.poolb,21.0,D
1592,21.0,bell,5327.0,E9poolb,1.0,1,,R.poolb,21.0,D
1593,21.0,brain,5603.0,E9poolb,2.0,2,brain,R.poolb,21.0,D
1594,21.0,beef,4795.0,E9poolb,3.0,3,beef,R.poolb,21.0,D
1595,21.0,pie,4336.0,E9poolb,0.0,0,,R.poolb,22.0,S
1596,21.0,fly,7549.0,E9poolb,1.0,1,,R.poolb,22.0,S
1597,21.0,tie,5047.0,E9poolb,2.0,2,,R.poolb,22.0,S
1598,21.0,sky,6853.0,E9poolb,3.0,3,sky,R.poolb,22.0,S
1599,21.0,eye,5931.0,E9poolb,4.0,4,eye,R.poolb,22.0,S
1600,21.0,beard,4515.0,E9poolb,0.0,0,beard,R.poolb,23.0,D
1601,21.0,hill,6127.0,E9poolb,1.0,1,,R.poolb,23.0,D
1602,21.0,dirt,5538.0,E9poolb,2.0,2,,R.poolb,23.0,D
1603,21.0,card,6334.0,E9poolb,3.0,3,,R.poolb,23.0,D
1604,21.0,line,4111.0,E9poolb,4.0,4,line,R.poolb,23.0,D
1605,21.0,shell,4765.0,E9poolb,0.0,0,,R.poolb,24.0,D
1606,21.0,tree,4679.0,E9poolb,1.0,1,,R.poolb,24.0,D
1607,21.0,bowl,4030.0,E9poolb,2.0,2,,R.poolb,24.0,D
1608,21.0,broom,6712.0,E9poolb,3.0,3,,R.poolb,24.0,D
1609,21.0,test,4610.0,E9poolb,4.0,4,dressed,R.poolb,24.0,D
1610,21.0,ground,4323.0,E9poolb,5.0,5,ground,R.poolb,24.0,D
1611,21.0,mail,4329.0,E9poolb,0.0,0,sail,R.poolb,25.0,S
1612,21.0,sail,4102.0,E9poolb,1.0,1,,R.poolb,25.0,S
1613,21.0,trail,4763.0,E9poolb,2.0,2,,R.poolb,25.0,S
1614,21.0,wail,4655.0,E9poolb,3.0,3,,R.poolb,25.0,S
1615,21.0,tail,5485.0,E9poolb,4.0,4,jail,R.poolb,25.0,S
1616,21.0,jail,5282.0,E9poolb,5.0,5,,R.poolb,25.0,S
1617,21.0,band,3926.0,E9poolb,0.0,0,band,R.poolb,26.0,S
1618,21.0,land,5138.0,E9poolb,1.0,1,land,R.poolb,26.0,S
1619,21.0,stand,4950.0,E9poolb,2.0,2,stand,R.poolb,26.0,S
1620,21.0,hand,6224.0,E9poolb,3.0,3,hand,R.poolb,26.0,S
1621,21.0,deck,4841.0,E9poolb,0.0,0,deck,R.poolb,27.0,D
1622,21.0,slice,4353.0,E9poolb,1.0,1,slice,R.poolb,27.0,D
1623,21.0,rat,4388.0,E9poolb,2.0,2,rate,R.poolb,27.0,D
1624,28.0,earth,4948.0,E9poolb,0.0,0,earth,R.poolb,0.0,P
1625,28.0,peach,7031.0,E9poolb,1.0,1,peach,R.poolb,0.0,P
1626,28.0,hood,5556.0,E9poolb,0.0,0,hood,R.poolb,1.0,P
1627,28.0,wood,7056.0,E9poolb,1.0,1,wood,R.poolb,1.0,P
1628,28.0,farm,5910.0,E9poolb,0.0,0,farm,R.poolb,2.0,P
1629,28.0,arm,5874.0,E9poolb,1.0,1,arm,R.poolb,2.0,P
1630,28.0,bath,5835.0,E9poolb,0.0,0,bath,R.poolb,3.0,P
1631,28.0,dawn,5426.0,E9poolb,1.0,1,dawn,R.poolb,3.0,P
1632,28.0,coin,6108.0,E9poolb,0.0,0,coin,R.poolb,4.0,D
1633,28.0,film,5528.0,E9poolb,1.0,1,farm,R.poolb,4.0,D
1634,28.0,leaf,5900.0,E9poolb,2.0,2,,R.poolb,4.0,D
1635,28.0,train,6680.0,E9poolb,3.0,3,,R.poolb,4.0,D
1636,28.0,map,6740.0,E9poolb,4.0,4,art,R.poolb,4.0,D
1637,28.0,art,7110.0,E9poolb,5.0,,,R.poolb,4.0,D
1638,28.0,neck,5670.0,E9poolb,0.0,0,neck,R.poolb,5.0,D
1639,28.0,town,6500.0,E9poolb,1.0,1,town,R.poolb,5.0,D
1640,28.0,hat,6567.0,E9poolb,2.0,2,,R.poolb,5.0,D
1641,28.0,street,5791.0,E9poolb,3.0,3,street,R.poolb,5.0,D
1642,28.0,rice,6209.0,E9poolb,0.0,0,rice,R.poolb,6.0,D
1643,28.0,cat,5240.0,E9poolb,1.0,1,cat,R.poolb,6.0,D
1644,28.0,trash,6616.0,E9poolb,2.0,2,trash,R.poolb,6.0,D
1645,28.0,path,5756.0,E9poolb,0.0,0,path,R.poolb,7.0,D
1646,28.0,nest,5742.0,E9poolb,1.0,1,nest,R.poolb,7.0,D
1647,28.0,square,6105.0,E9poolb,2.0,2,,R.poolb,7.0,D
1648,28.0,wood,6502.0,E9poolb,3.0,3,,R.poolb,7.0,D
1649,28.0,beach,7281.0,E9poolb,4.0,4,beach,R.poolb,7.0,D
1650,28.0,doll,5959.0,E9poolb,0.0,0,doll,R.poolb,8.0,S
1651,28.0,ball,6089.0,E9poolb,1.0,1,ball,R.poolb,8.0,S
1652,28.0,shawl,6677.0,E9poolb,2.0,2,shawl,R.poolb,8.0,S
1653,28.0,hall,5634.0,E9poolb,3.0,3,,R.poolb,8.0,S
1654,28.0,brawl,5857.0,E9poolb,4.0,4,wall,R.poolb,8.0,S
1655,28.0,wall,6183.0,E9poolb,5.0,,,R.poolb,8.0,S
1656,28.0,blouse,5627.0,E9poolb,0.0,0,blouse,R.poolb,9.0,S
1657,28.0,house,5770.0,E9poolb,1.0,1,house,R.poolb,9.0,S
1658,28.0,mouse,5580.0,E9poolb,2.0,2,mouse,R.poolb,9.0,S
1659,28.0,bread,5799.0,E9poolb,0.0,0,bread,R.poolb,10.0,S
1660,28.0,head,5655.0,E9poolb,1.0,1,head,R.poolb,10.0,S
1661,28.0,thread,5549.0,E9poolb,2.0,2,thread,R.poolb,10.0,S
1662,28.0,bed,7895.0,E9poolb,3.0,3,bed,R.poolb,10.0,S
1663,28.0,king,5516.0,E9poolb,0.0,0,king,R.poolb,11.0,S
1664,28.0,ring,4833.0,E9poolb,1.0,1,ring,R.poolb,11.0,S
1665,28.0,spring,5889.0,E9poolb,2.0,2,,R.poolb,11.0,S
1666,28.0,string,4661.0,E9poolb,3.0,3,wing,R.poolb,11.0,S
1667,28.0,wing,5925.0,E9poolb,4.0,,,R.poolb,11.0,S
1668,28.0,bone,6060.0,E9poolb,0.0,0,bone,R.poolb,12.0,S
1669,28.0,phone,7098.0,E9poolb,1.0,1,phone,R.poolb,12.0,S
1670,28.0,stone,6733.0,E9poolb,2.0,2,stone,R.poolb,12.0,S
1671,28.0,jar,5638.0,E9poolb,0.0,0,jar,R.poolb,13.0,S
1672,28.0,bar,6117.0,E9poolb,1.0,1,bar,R.poolb,13.0,S
1673,28.0,car,7337.0,E9poolb,2.0,2,car,R.poolb,13.0,S
1674,28.0,scar,6754.0,E9poolb,3.0,3,,R.poolb,13.0,S
1675,28.0,star,6379.0,E9poolb,4.0,4,star,R.poolb,13.0,S
1676,28.0,ant,4970.0,E9poolb,0.0,0,ant,R.poolb,14.0,D
1677,28.0,air,4483.0,E9poolb,1.0,1,air,R.poolb,14.0,D
1678,28.0,ink,5217.0,E9poolb,2.0,2,ink,R.poolb,14.0,D
1679,28.0,cloud,5394.0,E9poolb,3.0,3,,R.poolb,14.0,D
1680,28.0,seat,5338.0,E9poolb,4.0,4,,R.poolb,14.0,D
1681,28.0,breath,4645.0,E9poolb,5.0,,,R.poolb,14.0,D
1682,28.0,spice,5112.0,E9poolb,0.0,0,,R.poolb,15.0,D
1683,28.0,heat,5517.0,E9poolb,1.0,1,,R.poolb,15.0,D
1684,28.0,shape,6082.0,E9poolb,2.0,2,shape,R.poolb,15.0,D
1685,28.0,pear,5574.0,E9poolb,3.0,3,pear,R.poolb,15.0,D
1686,28.0,guest,4944.0,E9poolb,4.0,4,guest,R.poolb,15.0,D
1687,28.0,toy,5647.0,E9poolb,0.0,0,,R.poolb,16.0,D
1688,28.0,wreck,4976.0,E9poolb,1.0,1,wreck,R.poolb,16.0,D
1689,28.0,frown,6072.0,E9poolb,2.0,2,frown,R.poolb,16.0,D
1690,28.0,deer,5277.0,E9poolb,0.0,0,deer,R.poolb,17.0,S
1691,28.0,sphere,6411.0,E9poolb,1.0,1,,R.poolb,17.0,S
1692,28.0,ear,5514.0,E9poolb,2.0,2,ear,R.poolb,17.0,S
1693,28.0,tear,6326.0,E9poolb,3.0,3,tear,R.poolb,17.0,S
1694,28.0,boot,4965.0,E9poolb,0.0,0,boot,R.poolb,18.0,S
1695,28.0,suit,4943.0,E9poolb,1.0,1,suit,R.poolb,18.0,S
1696,28.0,flute,5827.0,E9poolb,2.0,2,,R.poolb,18.0,S
1697,28.0,loot,5698.0,E9poolb,3.0,3,,R.poolb,18.0,S
1698,28.0,root,5326.0,E9poolb,4.0,4,,R.poolb,18.0,S
1699,28.0,brute,5434.0,E9poolb,5.0,5,root,R.poolb,18.0,S
1700,28.0,chest,5159.0,E9poolb,0.0,0,chest,R.poolb,19.0,D
1701,28.0,lane,4946.0,E9poolb,1.0,1,lane,R.poolb,19.0,D
1702,28.0,hair,5198.0,E9poolb,2.0,2,hair,R.poolb,19.0,D
1703,28.0,crown,6222.0,E9poolb,3.0,3,crown,R.poolb,19.0,D
1704,28.0,deck,4949.0,E9poolb,0.0,0,deck,R.poolb,20.0,D
1705,28.0,slice,5040.0,E9poolb,1.0,1,slice,R.poolb,20.0,D
1706,28.0,rat,5167.0,E9poolb,2.0,2,rat,R.poolb,20.0,D
1707,28.0,pie,5094.0,E9poolb,0.0,0,pie,R.poolb,21.0,S
1708,28.0,fly,5203.0,E9poolb,1.0,1,fly,R.poolb,21.0,S
1709,28.0,tie,5989.0,E9poolb,2.0,2,sky,R.poolb,21.0,S
1710,28.0,sky,7069.0,E9poolb,3.0,3,tie,R.poolb,21.0,S
1711,28.0,eye,5689.0,E9poolb,4.0,,,R.poolb,21.0,S
1712,28.0,mail,5650.0,E9poolb,0.0,0,mail,R.poolb,22.0,S
1713,28.0,sail,5864.0,E9poolb,1.0,1,sail,R.poolb,22.0,S
1714,28.0,trail,5182.0,E9poolb,2.0,2,trail,R.poolb,22.0,S
1715,28.0,wail,7089.0,E9poolb,3.0,3,tail,R.poolb,22.0,S
1716,28.0,tail,6203.0,E9poolb,4.0,4,sail,R.poolb,22.0,S
1717,28.0,jail,5395.0,E9poolb,5.0,,,R.poolb,22.0,S
1718,28.0,beard,4700.0,E9poolb,0.0,0,beard,R.poolb,23.0,D
1719,28.0,hill,5801.0,E9poolb,1.0,1,hill,R.poolb,23.0,D
1720,28.0,dirt,6266.0,E9poolb,2.0,2,dirt,R.poolb,23.0,D
1721,28.0,card,6030.0,E9poolb,3.0,3,,R.poolb,23.0,D
1722,28.0,line,5845.0,E9poolb,4.0,,,R.poolb,23.0,D
1723,28.0,shell,5729.0,E9poolb,0.0,0,shell,R.poolb,24.0,D
1724,28.0,tree,5758.0,E9poolb,1.0,1,tree,R.poolb,24.0,D
1725,28.0,bowl,5680.0,E9poolb,2.0,2,,R.poolb,24.0,D
1726,28.0,broom,6141.0,E9poolb,3.0,3,,R.poolb,24.0,D
1727,28.0,test,6616.0,E9poolb,4.0,4,,R.poolb,24.0,D
1728,28.0,ground,5503.0,E9poolb,5.0,5,ground,R.poolb,24.0,D
1729,28.0,mare,5503.0,E9poolb,0.0,0,,R.poolb,25.0,D
1730,28.0,bell,4971.0,E9poolb,1.0,1,,R.poolb,25.0,D
1731,28.0,brain,4949.0,E9poolb,2.0,2,brain,R.poolb,25.0,D
1732,28.0,beef,4689.0,E9poolb,3.0,3,beef,R.poolb,25.0,D
1733,28.0,cream,4659.0,E9poolb,0.0,0,cream,R.poolb,26.0,S
1734,28.0,team,5267.0,E9poolb,1.0,1,team,R.poolb,26.0,S
1735,28.0,steam,6865.0,E9poolb,2.0,2,steam,R.poolb,26.0,S
1736,28.0,band,5962.0,E9poolb,0.0,0,band,R.poolb,27.0,S
1737,28.0,land,5084.0,E9poolb,1.0,1,land,R.poolb,27.0,S
1738,28.0,stand,5306.0,E9poolb,2.0,2,stand,R.poolb,27.0,S
1739,28.0,hand,6486.0,E9poolb,3.0,3,hand,R.poolb,27.0,S
1740,40.0,bath,5791.0,E9poolb,0.0,0,bath,R.poolb,0.0,P
1741,40.0,dawn,5911.0,E9poolb,1.0,1,dawn,R.poolb,0.0,P
1742,40.0,hood,6485.0,E9poolb,0.0,0,hood,R.poolb,1.0,P
1743,40.0,wood,5505.0,E9poolb,1.0,1,wood,R.poolb,1.0,P
1744,40.0,farm,6571.0,E9poolb,0.0,0,farm,R.poolb,2.0,P
1745,40.0,arm,5468.0,E9poolb,1.0,1,arm,R.poolb,2.0,P
1746,40.0,earth,4898.0,E9poolb,0.0,0,earth,R.poolb,3.0,P
1747,40.0,peach,4407.0,E9poolb,1.0,1,peach,R.poolb,3.0,P
1748,40.0,path,5287.0,E9poolb,0.0,0,,R.poolb,4.0,D
1749,40.0,nest,5299.0,E9poolb,1.0,1,vain,R.poolb,4.0,D
1750,40.0,square,5033.0,E9poolb,2.0,2,poster,R.poolb,4.0,D
1751,40.0,wood,5904.0,E9poolb,3.0,3,wood,R.poolb,4.0,D
1752,40.0,beach,8804.0,E9poolb,4.0,4,beach,R.poolb,4.0,D
1753,40.0,bread,5653.0,E9poolb,0.0,0,bed,R.poolb,5.0,S
1754,40.0,head,5659.0,E9poolb,1.0,1,thread,R.poolb,5.0,S
1755,40.0,thread,5745.0,E9poolb,2.0,2,head,R.poolb,5.0,S
1756,40.0,bed,7109.0,E9poolb,3.0,3,bed,R.poolb,5.0,S
1757,40.0,neck,4586.0,E9poolb,0.0,0,neck,R.poolb,6.0,D
1758,40.0,town,4836.0,E9poolb,1.0,1,town,R.poolb,6.0,D
1759,40.0,hat,5458.0,E9poolb,2.0,2,hat,R.poolb,6.0,D
1760,40.0,street,5690.0,E9poolb,3.0,3,street,R.poolb,6.0,D
1761,40.0,coin,5034.0,E9poolb,0.0,0,,R.poolb,7.0,D
1762,40.0,film,5442.0,E9poolb,1.0,1,,R.poolb,7.0,D
1763,40.0,leaf,4346.0,E9poolb,2.0,2,,R.poolb,7.0,D
1764,40.0,train,5070.0,E9poolb,3.0,3,bowl,R.poolb,7.0,D
1765,40.0,map,5691.0,E9poolb,4.0,4,coin,R.poolb,7.0,D
1766,40.0,art,6961.0,E9poolb,5.0,5,art,R.poolb,7.0,D
1767,40.0,rice,4886.0,E9poolb,0.0,0,rice,R.poolb,8.0,D
1768,40.0,cat,5413.0,E9poolb,1.0,1,cat,R.poolb,8.0,D
1769,40.0,trash,5613.0,E9poolb,2.0,2,trash,R.poolb,8.0,D
1770,40.0,king,4978.0,E9poolb,0.0,0,,R.poolb,9.0,S
1771,40.0,ring,4683.0,E9poolb,1.0,1,,R.poolb,9.0,S
1772,40.0,spring,4889.0,E9poolb,2.0,2,king,R.poolb,9.0,S
1773,40.0,string,4958.0,E9poolb,3.0,3,spring,R.poolb,9.0,S
1774,40.0,wing,6970.0,E9poolb,4.0,4,string,R.poolb,9.0,S
1775,40.0,doll,5284.0,E9poolb,0.0,0,doll,R.poolb,10.0,S
1776,40.0,ball,4177.0,E9poolb,1.0,1,ball,R.poolb,10.0,S
1777,40.0,shawl,5661.0,E9poolb,2.0,2,hall,R.poolb,10.0,S
1778,40.0,hall,5515.0,E9poolb,3.0,3,shawl,R.poolb,10.0,S
1779,40.0,brawl,5239.0,E9poolb,4.0,4,brawl,R.poolb,10.0,S
1780,40.0,wall,4919.0,E9poolb,5.0,,,R.poolb,10.0,S
1781,40.0,blouse,4353.0,E9poolb,0.0,0,louse,R.poolb,11.0,S
1782,40.0,house,4196.0,E9poolb,1.0,1,blouse,R.poolb,11.0,S
1783,40.0,mouse,4487.0,E9poolb,2.0,2,mouse,R.poolb,11.0,S
1784,40.0,ant,4327.0,E9poolb,0.0,0,,R.poolb,12.0,D
1785,40.0,air,4084.0,E9poolb,1.0,1,,R.poolb,12.0,D
1786,40.0,ink,4075.0,E9poolb,2.0,2,cloud,R.poolb,12.0,D
1787,40.0,cloud,5185.0,E9poolb,3.0,3,air,R.poolb,12.0,D
1788,40.0,seat,5067.0,E9poolb,4.0,4,breath,R.poolb,12.0,D
1789,40.0,breath,5841.0,E9poolb,5.0,,,R.poolb,12.0,D
1790,40.0,chest,4361.0,E9poolb,0.0,0,,R.poolb,13.0,D
1791,40.0,lane,3956.0,E9poolb,1.0,1,cloud,R.poolb,13.0,D
1792,40.0,hair,4161.0,E9poolb,2.0,2,hair,R.poolb,13.0,D
1793,40.0,crown,4724.0,E9poolb,3.0,3,crown,R.poolb,13.0,D
1794,40.0,toy,4112.0,E9poolb,0.0,0,toy,R.poolb,14.0,D
1795,40.0,wreck,4518.0,E9poolb,1.0,1,wreck,R.poolb,14.0,D
1796,40.0,frown,4378.0,E9poolb,2.0,2,frown,R.poolb,14.0,D
1797,40.0,deer,4397.0,E9poolb,0.0,0,dear,R.poolb,15.0,S
1798,40.0,sphere,4271.0,E9poolb,1.0,1,,R.poolb,15.0,S
1799,40.0,ear,4765.0,E9poolb,2.0,2,sphere,R.poolb,15.0,S
1800,40.0,tear,4864.0,E9poolb,3.0,3,tear,R.poolb,15.0,S
1801,40.0,spice,4361.0,E9poolb,0.0,0,spice,R.poolb,16.0,D
1802,40.0,heat,4204.0,E9poolb,1.0,1,,R.poolb,16.0,D
1803,40.0,shape,5086.0,E9poolb,2.0,2,,R.poolb,16.0,D
1804,40.0,pear,5875.0,E9poolb,3.0,3,pear,R.poolb,16.0,D
1805,40.0,guest,5576.0,E9poolb,4.0,4,guest,R.poolb,16.0,D
1806,40.0,jar,4249.0,E9poolb,0.0,0,,R.poolb,17.0,S
1807,40.0,bar,4401.0,E9poolb,1.0,1,jar,R.poolb,17.0,S
1808,40.0,car,4771.0,E9poolb,2.0,2,car,R.poolb,17.0,S
1809,40.0,scar,4612.0,E9poolb,3.0,3,star,R.poolb,17.0,S
1810,40.0,star,5679.0,E9poolb,4.0,4,scar,R.poolb,17.0,S
1811,40.0,cream,4255.0,E9poolb,0.0,0,clean,R.poolb,18.0,S
1812,40.0,team,4237.0,E9poolb,1.0,1,dream,R.poolb,18.0,S
1813,40.0,steam,4270.0,E9poolb,2.0,2,steam,R.poolb,18.0,S
1814,40.0,boot,4282.0,E9poolb,0.0,0,boot,R.poolb,19.0,S
1815,40.0,suit,4104.0,E9poolb,1.0,1,suit,R.poolb,19.0,S
1816,40.0,flute,4478.0,E9poolb,2.0,2,loot,R.poolb,19.0,S
1817,40.0,loot,4283.0,E9poolb,3.0,3,ruit,R.poolb,19.0,S
1818,40.0,root,4490.0,E9poolb,4.0,4,,R.poolb,19.0,S
1819,40.0,brute,6088.0,E9poolb,5.0,5,,R.poolb,19.0,S
1820,40.0,mail,6828.0,E9poolb,0.0,0,,R.poolb,20.0,S
1821,40.0,sail,4250.0,E9poolb,1.0,1,trail,R.poolb,20.0,S
1822,40.0,trail,4354.0,E9poolb,2.0,2,,R.poolb,20.0,S
1823,40.0,wail,4950.0,E9poolb,3.0,3,jail,R.poolb,20.0,S
1824,40.0,tail,4201.0,E9poolb,4.0,4,sail,R.poolb,20.0,S
1825,40.0,jail,5082.0,E9poolb,5.0,,,R.poolb,20.0,S
1826,40.0,band,3947.0,E9poolb,0.0,0,,R.poolb,21.0,S
1827,40.0,land,4215.0,E9poolb,1.0,1,band,R.poolb,21.0,S
1828,40.0,stand,4104.0,E9poolb,2.0,2,hand,R.poolb,21.0,S
